Frequency(Hz)	Channel 1(V)	
0	0.314698	
0.488281	0.0073472	
0.976563	0.00695392	
1.46484	0.00631043	
1.95313	0.00851333	
2.44141	0.0103405	
2.92969	0.0124706	
3.41797	0.0152741	
3.90625	0.0214553	
4.39453	0.0329735	
4.88281	0.0636301	
5.37109	3.35925	
5.85938	0.069377	
6.34766	0.0362807	
6.83594	0.0241617	
7.32422	0.0180817	
7.8125	0.0150209	
8.30078	0.012938	
8.78906	0.0108837	
9.27734	0.00921236	
9.76563	0.00915387	
10.2539	0.00943477	
10.7422	0.113934	
11.2305	0.00807428	
11.7188	0.00654179	
12.207	0.00595024	
12.6953	0.00568643	
13.1836	0.00526743	
13.6719	0.00512962	
14.1602	0.00496724	
14.6484	0.00484693	
15.1367	0.00487454	
15.625	0.00535279	
16.1133	0.0395928	
16.6016	0.00354911	
17.0898	0.0032341	
17.5781	0.00328808	
18.0664	0.00320558	
18.5547	0.00318401	
19.043	0.0031261	
19.5313	0.00300047	
20.0195	0.00300806	
20.5078	0.00292775	
20.9961	0.00309591	
21.4844	0.01901	
21.9727	0.00301979	
22.4609	0.00266168	
22.9492	0.0025276	
23.4375	0.00246171	
23.9258	0.00240539	
24.4141	0.00234712	
24.9023	0.00230525	
25.3906	0.00225575	
25.8789	0.00221144	
26.3672	0.00220692	
26.8555	0.00541149	
27.3438	0.00211574	
27.832	0.00204862	
28.3203	0.00198657	
28.8086	0.00195744	
29.2969	0.00192164	
29.7852	0.00187275	
30.2734	0.00186129	
30.7617	0.00184436	
31.25	0.00182445	
31.7383	0.00184718	
32.2266	0.00459553	
32.7148	0.00170478	
33.2031	0.0016426	
33.6914	0.00163003	
34.1797	0.0015848	
34.668	0.00154899	
35.1563	0.00152701	
35.6445	0.00150434	
36.1328	0.00146082	
36.6211	0.00141828	
37.1094	0.00139521	
37.5977	0.00587535	
38.0859	0.00202501	
38.5742	0.00166947	
39.0625	0.0015549	
39.5508	0.00149753	
40.0391	0.00145679	
40.5273	0.00142712	
41.0156	0.00139791	
41.5039	0.00136582	
41.9922	0.00135555	
42.4805	0.00134039	
42.9688	0.00202697	
43.457	0.00138897	
43.9453	0.00131899	
44.4336	0.00129512	
44.9219	0.00127942	
45.4102	0.00127322	
45.8984	0.00125552	
46.3867	0.00123523	
46.875	0.00125418	
47.3633	0.00128687	
47.8516	0.00144598	
48.3398	0.00522766	
48.8281	0.00150711	
49.3164	0.00118638	
49.8047	0.00113387	
50.293	0.00110753	
50.7813	0.00110253	
51.2695	0.00109296	
51.7578	0.00107646	
52.2461	0.00106507	
52.7344	0.00106136	
53.2227	0.00107011	
53.7109	0.00153682	
54.1992	0.0010482	
54.6875	0.00101954	
55.1758	0.00100841	
55.6641	0.00100243	
56.1523	0.000999215	
56.6406	0.000992973	
57.1289	0.000996185	
57.6172	0.00100004	
58.1055	0.00102448	
58.5938	0.00114697	
59.082	0.00367029	
59.5703	0.00135465	
60.0586	0.000985293	
60.5469	0.000939995	
61.0352	0.000926437	
61.5234	0.000906881	
62.0117	0.000890869	
62.5	0.000886757	
62.9883	0.000885902	
63.4766	0.000874633	
63.9648	0.000865605	
64.4531	0.00115744	
64.9414	0.000893761	
65.4297	0.000862931	
65.918	0.000850315	
66.4063	0.00084524	
66.8945	0.000835047	
67.3828	0.000840073	
67.8711	0.000847349	
68.3594	0.000852793	
68.8477	0.000890378	
69.3359	0.000996277	
69.8242	0.00294841	
70.3125	0.0011453	
70.8008	0.000857792	
71.2891	0.000779361	
71.7773	0.000752769	
72.2656	0.000753374	
72.7539	0.000749001	
73.2422	0.000741844	
73.7305	0.00073229	
74.2188	0.000736422	
74.707	0.000743767	
75.1953	0.000968044	
75.6836	0.000771168	
76.1719	0.000718146	
76.6602	0.000710489	
77.1484	0.000703	
77.6367	0.000699164	
78.125	0.000691877	
78.6133	0.000678712	
79.1016	0.000685453	
79.5898	0.000695626	
80.0781	0.000749595	
80.5664	0.0019423	
81.0547	0.00113756	
81.543	0.000783422	
82.0313	0.00073411	
82.5195	0.000709143	
83.0078	0.000692023	
83.4961	0.000681437	
83.9844	0.000670701	
84.4727	0.000664498	
84.9609	0.000664663	
85.4492	0.000670408	
85.9375	0.000826197	
86.4258	0.000659643	
86.9141	0.00064401	
87.4023	0.000640938	
87.8906	0.000638377	
88.3789	0.000641303	
88.8672	0.0006354	
89.3555	0.000637184	
89.8438	0.000642183	
90.332	0.000662699	
90.8203	0.00072781	
91.3086	0.00160389	
91.7969	0.000899202	
92.2852	0.000623231	
92.7734	0.000599552	
93.2617	0.000597572	
93.75	0.00058485	
94.2383	0.00057787	
94.7266	0.00057678	
95.2148	0.000578375	
95.7031	0.000571242	
96.1914	0.000565965	
96.6797	0.000683403	
97.168	0.000590856	
97.6563	0.000562256	
98.1445	0.000550062	
98.6328	0.000550557	
99.1211	0.000542922	
99.6094	0.000543989	
100.098	0.000548865	
100.586	0.00054189	
101.074	0.000534974	
101.563	0.000575344	
102.051	0.00120713	
102.539	0.000907924	
103.027	0.000649106	
103.516	0.000571754	
104.004	0.000541416	
104.492	0.000544507	
104.98	0.000537594	
105.469	0.000533586	
105.957	0.000527998	
106.445	0.000529655	
106.934	0.00053209	
107.422	0.000607756	
107.91	0.000567357	
108.398	0.000517468	
108.887	0.000515027	
109.375	0.000511274	
109.863	0.000510428	
110.352	0.000508553	
110.84	0.000504856	
111.328	0.000511767	
111.816	0.000541597	
112.305	0.000565352	
112.793	0.00108077	
113.281	0.0007553	
113.77	0.000499407	
114.258	0.000491812	
114.746	0.000490504	
115.234	0.000479998	
115.723	0.000477741	
116.211	0.000472502	
116.699	0.000470729	
117.188	0.000470894	
117.676	0.000476965	
118.164	0.000535115	
118.652	0.000488179	
119.141	0.000465657	
119.629	0.000459012	
120.117	0.000459474	
120.605	0.000463083	
121.094	0.000455436	
121.582	0.000450654	
122.07	0.000456357	
122.559	0.000459331	
123.047	0.000491273	
123.535	0.000798968	
124.023	0.000690529	
124.512	0.000474928	
125	0.000481198	
125.488	0.00044754	
125.977	0.000440848	
126.465	0.000434947	
126.953	0.000434238	
127.441	0.000434982	
127.93	0.000433024	
128.418	0.00042707	
128.906	0.00048095	
129.395	0.000429739	
129.883	0.000422395	
130.371	0.00042114	
130.859	0.00041872	
131.348	0.000413277	
131.836	0.00041815	
132.324	0.000426534	
132.813	0.00041933	
133.301	0.00041409	
133.789	0.000443815	
134.277	0.000703041	
134.766	0.000645451	
135.254	0.00044927	
135.742	0.000409597	
136.23	0.000398037	
136.719	0.000400601	
137.207	0.000400271	
137.695	0.000397576	
138.184	0.000392669	
138.672	0.000393611	
139.16	0.00039498	
139.648	0.000414725	
140.137	0.000469346	
140.625	0.000399247	
141.113	0.000389157	
141.602	0.00038978	
142.09	0.000390374	
142.578	0.000386598	
143.066	0.00038306	
143.555	0.000387354	
144.043	0.000406273	
144.531	0.000404512	
145.02	0.000605335	
145.508	0.000602989	
145.996	0.000396398	
146.484	0.000384509	
146.973	0.000375137	
147.461	0.000374188	
147.949	0.000373536	
148.438	0.00036888	
148.926	0.000366995	
149.414	0.000368159	
149.902	0.000373059	
150.391	0.000385773	
150.879	0.000392725	
151.367	0.00036745	
151.855	0.00036516	
152.344	0.000362248	
152.832	0.000361615	
153.32	0.000358576	
153.809	0.000354814	
154.297	0.000358334	
154.785	0.000351986	
155.273	0.000370487	
155.762	0.000492775	
156.25	0.000557806	
156.738	0.000370349	
157.227	0.000360046	
157.715	0.000355763	
158.203	0.000351434	
158.691	0.00034389	
159.18	0.000347582	
159.668	0.000350724	
160.156	0.000346502	
160.645	0.000342793	
161.133	0.00037555	
161.621	0.000326546	
162.109	0.000338619	
162.598	0.00033779	
163.086	0.000336975	
163.574	0.000333228	
164.063	0.000337172	
164.551	0.000340646	
165.039	0.000337463	
165.527	0.000339932	
166.016	0.000350501	
166.504	0.000451358	
166.992	0.00048939	
167.48	0.000345521	
167.969	0.00032664	
168.457	0.000328423	
168.945	0.000322214	
169.434	0.000323819	
169.922	0.000321727	
170.41	0.000317225	
170.898	0.000319067	
171.387	0.000320614	
171.875	0.000332467	
172.363	0.000387273	
172.852	0.000318022	
173.34	0.000310531	
173.828	0.000312729	
174.316	0.000310854	
174.805	0.000310944	
175.293	0.000310024	
175.781	0.00030903	
176.27	0.000312713	
176.758	0.00031181	
177.246	0.00037398	
177.734	0.000506318	
178.223	0.000333172	
178.711	0.000320348	
179.199	0.000305213	
179.688	0.000310081	
180.176	0.000308494	
180.664	0.000306872	
181.152	0.000308135	
181.641	0.000305427	
182.129	0.000307749	
182.617	0.000318722	
183.105	0.000320311	
183.594	0.00030029	
184.082	0.000305792	
184.57	0.000299075	
185.059	0.000298901	
185.547	0.000297132	
186.035	0.000293936	
186.523	0.000296775	
187.012	0.00030088	
187.5	0.000304603	
187.988	0.000365728	
188.477	0.000427824	
188.965	0.000296784	
189.453	0.000292483	
189.941	0.000295482	
190.43	0.000288565	
190.918	0.000280721	
191.406	0.000286287	
191.895	0.000283573	
192.383	0.000284052	
192.871	0.0002838	
193.359	0.00029126	
193.848	0.000278557	
194.336	0.000285446	
194.824	0.000278222	
195.313	0.000280989	
195.801	0.000281741	
196.289	0.000279248	
196.777	0.000281221	
197.266	0.000277811	
197.754	0.00027166	
198.242	0.000279836	
198.73	0.000317829	
199.219	0.000416557	
199.707	0.000298776	
200.195	0.000281008	
200.684	0.000281107	
201.172	0.000276117	
201.66	0.000281652	
202.148	0.000275038	
202.637	0.000271397	
203.125	0.000273534	
203.613	0.000273314	
204.102	0.000281831	
204.59	0.000329955	
205.078	0.000267411	
205.566	0.000265846	
206.055	0.00026716	
206.543	0.000265866	
207.031	0.000267389	
207.52	0.000267099	
208.008	0.000268208	
208.496	0.000274317	
208.984	0.000273703	
209.473	0.000306524	
209.961	0.00036196	
210.449	0.000251743	
210.938	0.000256215	
211.426	0.000248734	
211.914	0.000256444	
212.402	0.000252876	
212.891	0.000255995	
213.379	0.00025775	
213.867	0.000255386	
214.355	0.000255821	
214.844	0.0002582	
215.332	0.000277928	
215.82	0.000256021	
216.309	0.000257851	
216.797	0.000251975	
217.285	0.000252719	
217.773	0.000250448	
218.262	0.000247764	
218.75	0.000250046	
219.238	0.000254137	
219.727	0.00025148	
220.215	0.000262131	
220.703	0.000364795	
221.191	0.000259918	
221.68	0.000252209	
222.168	0.000252869	
222.656	0.000246188	
223.145	0.00024263	
223.633	0.000245184	
224.121	0.000244252	
224.609	0.000243592	
225.098	0.000245599	
225.586	0.000245105	
226.074	0.000236383	
226.563	0.000246135	
227.051	0.000242794	
227.539	0.000242444	
228.027	0.000240454	
228.516	0.000240848	
229.004	0.000243413	
229.492	0.000239519	
229.98	0.000230461	
230.469	0.000240479	
230.957	0.000267139	
231.445	0.00033735	
231.934	0.000252386	
232.422	0.000238811	
232.91	0.000236749	
233.398	0.0002361	
233.887	0.000240198	
234.375	0.00023562	
234.863	0.000233674	
235.352	0.00023427	
235.84	0.000234005	
236.328	0.000238852	
236.816	0.000301414	
237.305	0.000231701	
237.793	0.000227721	
238.281	0.000229904	
238.77	0.000230975	
239.258	0.000230335	
239.746	0.000225748	
240.234	0.000229457	
240.723	0.000236399	
241.211	0.000227974	
241.699	0.000230094	
242.188	0.000315724	
242.676	0.000226228	
243.164	0.000227601	
243.652	0.000223517	
244.141	0.000225361	
244.629	0.000224	
245.117	0.000224171	
245.605	0.000224655	
246.094	0.000223246	
246.582	0.000223244	
247.07	0.000222369	
247.559	0.000221689	
248.047	0.000224524	
248.535	0.000226258	
249.023	0.000221288	
249.512	0.000218406	
250	0.00021936	
250.488	0.000221258	
250.977	0.000220071	
251.465	0.000218279	
251.953	0.000221303	
252.441	0.000226284	
252.93	0.000304215	
253.418	0.000220059	
253.906	0.000218123	
254.395	0.000216454	
254.883	0.000214745	
255.371	0.000213616	
255.859	0.000214804	
256.348	0.000216859	
256.836	0.000213984	
257.324	0.000215049	
257.813	0.000218658	
258.301	0.00020534	
258.789	0.000213336	
259.277	0.000212002	
259.766	0.000211316	
260.254	0.000210914	
260.742	0.000210351	
261.23	0.000210818	
261.719	0.000209166	
262.207	0.000207503	
262.695	0.000209665	
263.184	0.00021739	
263.672	0.000267131	
264.16	0.000230941	
264.648	0.000211792	
265.137	0.000208092	
265.625	0.000207542	
266.113	0.000209326	
266.602	0.000206402	
267.09	0.000202316	
267.578	0.000205386	
268.066	0.000208199	
268.555	0.000207155	
269.043	0.000261344	
269.531	0.000203322	
270.02	0.000199298	
270.508	0.000202565	
270.996	0.000205317	
271.484	0.000202531	
271.973	0.000199386	
272.461	0.000201664	
272.949	0.000202502	
273.438	0.000201837	
273.926	0.000215452	
274.414	0.000272526	
274.902	0.000205059	
275.391	0.000200221	
275.879	0.0001999	
276.367	0.000199487	
276.855	0.000200247	
277.344	0.000198981	
277.832	0.000198365	
278.32	0.000197824	
278.809	0.000193822	
279.297	0.000198319	
279.785	0.000186232	
280.273	0.000198163	
280.762	0.000199734	
281.25	0.000195335	
281.738	0.000194191	
282.227	0.000195195	
282.715	0.000196169	
283.203	0.000195355	
283.691	0.000194443	
284.18	0.000194308	
284.668	0.000189961	
285.156	0.000239066	
285.645	0.000179952	
286.133	0.000192603	
286.621	0.00019234	
287.109	0.00019088	
287.598	0.000187851	
288.086	0.000190039	
288.574	0.000191913	
289.063	0.000189424	
289.551	0.000188316	
290.039	0.000186066	
290.527	0.000232484	
291.016	0.000196191	
291.504	0.000189278	
291.992	0.000189359	
292.48	0.000188678	
292.969	0.000188146	
293.457	0.000187917	
293.945	0.000187614	
294.434	0.00018978	
294.922	0.000188331	
295.41	0.000188371	
295.898	0.000233599	
296.387	0.000214702	
296.875	0.000188758	
297.363	0.000186351	
297.852	0.000186336	
298.34	0.000187749	
298.828	0.00018574	
299.316	0.000182	
299.805	0.000191733	
300.293	0.000186905	
300.781	0.000188572	
301.27	0.000170081	
301.758	0.00018008	
302.246	0.000177275	
302.734	0.00018036	
303.223	0.000182182	
303.711	0.000180523	
304.199	0.00017945	
304.688	0.000180121	
305.176	0.000176962	
305.664	0.000179178	
306.152	0.000191222	
306.641	0.000218767	
307.129	0.000183414	
307.617	0.000178997	
308.105	0.000179758	
308.594	0.000178804	
309.082	0.000179339	
309.57	0.0001778	
310.059	0.00017857	
310.547	0.000177607	
311.035	0.000171604	
311.523	0.000176902	
312.012	0.000211012	
312.5	0.000179759	
312.988	0.000179149	
313.477	0.00017598	
313.965	0.000176673	
314.453	0.000175322	
314.941	0.00017574	
315.43	0.000175563	
315.918	0.000175526	
316.406	0.000174862	
316.895	0.00016566	
317.383	0.000218693	
317.871	0.000160624	
318.359	0.000173942	
318.848	0.000170709	
319.336	0.000171585	
319.824	0.00016813	
320.313	0.000171677	
320.801	0.000172502	
321.289	0.000170995	
321.777	0.000173637	
322.266	0.000171035	
322.754	0.000204269	
323.242	0.000175749	
323.73	0.000172318	
324.219	0.000170677	
324.707	0.000168338	
325.195	0.000169142	
325.684	0.000170649	
326.172	0.000169314	
326.66	0.000169975	
327.148	0.000169638	
327.637	0.000175294	
328.125	0.000205736	
328.613	0.000192333	
329.102	0.000167555	
329.59	0.000165716	
330.078	0.000166579	
330.566	0.000166975	
331.055	0.000166222	
331.543	0.000164754	
332.031	0.00016571	
332.52	0.000165745	
333.008	0.000165114	
333.496	0.000132124	
333.984	0.000169557	
334.473	0.000162575	
334.961	0.000165889	
335.449	0.000166783	
335.938	0.000164689	
336.426	0.000160767	
336.914	0.000163281	
337.402	0.000164363	
337.891	0.000163193	
338.379	0.000163567	
338.867	0.000187219	
339.355	0.000169463	
339.844	0.000165033	
340.332	0.000167308	
340.82	0.000162855	
341.309	0.000163567	
341.797	0.000162093	
342.285	0.000161866	
342.773	0.000162032	
343.262	0.000157958	
343.75	0.000163177	
344.238	0.000196306	
344.727	0.000160114	
345.215	0.000163906	
345.703	0.000159146	
346.191	0.000158722	
346.68	0.000159343	
347.168	0.00016017	
347.656	0.000159169	
348.145	0.000158409	
348.633	0.000159395	
349.121	0.000159666	
349.609	0.000185173	
350.098	0.000145896	
350.586	0.000157015	
351.074	0.00015458	
351.563	0.000156648	
352.051	0.000156233	
352.539	0.000156484	
353.027	0.000157626	
353.516	0.000155761	
354.004	0.000158336	
354.492	0.000155989	
354.98	0.000161249	
355.469	0.000159573	
355.957	0.000153103	
356.445	0.000154752	
356.934	0.000153909	
357.422	0.00015402	
357.91	0.000154375	
358.398	0.000154007	
358.887	0.000152685	
359.375	0.000153764	
359.863	0.000157506	
360.352	0.000170954	
360.84	0.000176059	
361.328	0.000155243	
361.816	0.000151437	
362.305	0.000152568	
362.793	0.000151965	
363.281	0.000151873	
363.77	0.000150091	
364.258	0.0001516	
364.746	0.000153485	
365.234	0.000150766	
365.723	0.000172939	
366.211	0.000155063	
366.699	0.00015011	
367.188	0.000151292	
367.676	0.000151539	
368.164	0.000150312	
368.652	0.000147916	
369.141	0.000150047	
369.629	0.000151322	
370.117	0.000150544	
370.605	0.000149555	
371.094	0.000169043	
371.582	0.000156341	
372.07	0.000149085	
372.559	0.000152262	
373.047	0.000148255	
373.535	0.000148581	
374.023	0.000149508	
374.512	0.000152438	
375	0.000149426	
375.488	0.000143616	
375.977	0.000150641	
376.465	0.000141384	
376.953	0.000149051	
377.441	0.000151795	
377.93	0.000146437	
378.418	0.000146887	
378.906	0.000146148	
379.395	0.000147179	
379.883	0.00014543	
380.371	0.000144944	
380.859	0.000144437	
381.348	0.000145648	
381.836	0.000161291	
382.324	0.000132335	
382.813	0.000146879	
383.301	0.000146314	
383.789	0.000145395	
384.277	0.000143087	
384.766	0.000144885	
385.254	0.000146472	
385.742	0.000144814	
386.23	0.000146229	
386.719	0.000144503	
387.207	0.000164314	
387.695	0.000146102	
388.184	0.000139207	
388.672	0.000141965	
389.16	0.000141766	
389.648	0.000141992	
390.137	0.000143436	
390.625	0.000142044	
391.113	0.000141684	
391.602	0.000142559	
392.09	0.000142853	
392.578	0.000154828	
393.066	0.000160888	
393.555	0.000140909	
394.043	0.000134319	
394.531	0.000140075	
395.02	0.000140835	
395.508	0.000139946	
395.996	0.000138368	
396.484	0.000140145	
396.973	0.000141235	
397.461	0.000141442	
397.949	0.000152761	
398.438	0.000142871	
398.926	0.000139304	
399.414	0.000138981	
399.902	0.000137051	
400.391	0.000138069	
400.879	0.000137111	
401.367	0.000138024	
401.855	0.000140768	
402.344	0.000138567	
402.832	0.000139698	
403.32	0.000152601	
403.809	0.000146147	
404.297	0.000136883	
404.785	0.00014162	
405.273	0.000136712	
405.762	0.000134864	
406.25	0.000135683	
406.738	0.000137094	
407.227	0.000135491	
407.715	0.000132398	
408.203	0.000135091	
408.691	0.000134823	
409.18	0.000141068	
409.668	0.000138792	
410.156	0.000136711	
410.645	0.000137764	
411.133	0.000135523	
411.621	0.000134607	
412.109	0.000134499	
412.598	0.00013378	
413.086	0.000134644	
413.574	0.000134857	
414.063	0.00014367	
414.551	0.000117122	
415.039	0.000135997	
415.527	0.000136224	
416.016	0.000133652	
416.504	0.000132884	
416.992	0.000133549	
417.48	0.00013341	
417.969	0.00013323	
418.457	0.000133361	
418.945	0.000133784	
419.434	0.000142091	
419.922	0.000136684	
420.41	0.000132767	
420.898	0.000131962	
421.387	0.000130539	
421.875	0.000131733	
422.363	0.000133704	
422.852	0.000131803	
423.34	0.000129738	
423.828	0.000131897	
424.316	0.000132152	
424.805	0.000142887	
425.293	0.000149443	
425.781	0.000129239	
426.27	0.000124361	
426.758	0.000129564	
427.246	0.000129887	
427.734	0.000129433	
428.223	0.000129064	
428.711	0.000128996	
429.199	0.00012976	
429.688	0.000128877	
430.176	0.000130569	
430.664	0.00013608	
431.152	0.000127682	
431.641	0.000129518	
432.129	0.000129411	
432.617	0.000128114	
433.105	0.000126381	
433.594	0.000127882	
434.082	0.000130904	
434.57	0.000128067	
435.059	0.00012588	
435.547	0.000128745	
436.035	0.000138829	
436.523	0.000130304	
437.012	0.000133253	
437.5	0.000127513	
437.988	0.000126271	
438.477	0.000127042	
438.965	0.000127417	
439.453	0.000127261	
439.941	0.000128173	
440.43	0.000128332	
440.918	0.000143199	
441.406	0.000125065	
441.895	0.00012857	
442.383	0.000125524	
442.871	0.000127316	
443.359	0.000125523	
443.848	0.000126338	
444.336	0.000124976	
444.824	0.000121991	
445.313	0.000125263	
445.801	0.000127547	
446.289	0.000131203	
446.777	0.000114287	
447.266	0.000126383	
447.754	0.000123587	
448.242	0.000124887	
448.73	0.000125709	
449.219	0.000123878	
449.707	0.000123159	
450.195	0.000123242	
450.684	0.000119585	
451.172	0.000122878	
451.66	0.00011949	
452.148	0.000129327	
452.637	0.000125761	
453.125	0.000123516	
453.613	0.000122448	
454.102	0.000123094	
454.59	0.000124273	
455.078	0.000122807	
455.566	0.000121371	
456.055	0.000122463	
456.543	0.000122103	
457.031	0.000128149	
457.52	0.000134867	
458.008	0.000123307	
458.496	0.000119126	
458.984	0.00012219	
459.473	0.000120979	
459.961	0.000121942	
460.449	0.00012189	
460.938	0.000121764	
461.426	0.000122379	
461.914	0.000121886	
462.402	0.000128392	
462.891	0.00012322	
463.379	0.000115795	
463.867	0.000119914	
464.355	0.000121143	
464.844	0.000119611	
465.332	0.000118159	
465.82	0.000119919	
466.309	0.000121831	
466.797	0.000119948	
467.285	0.000117134	
467.773	0.000124585	
468.262	0.000119643	
468.75	0.000118323	
469.238	0.00011967	
469.727	0.000117986	
470.215	0.000118607	
470.703	0.000118224	
471.191	0.000117743	
471.68	0.000118061	
472.168	0.000117001	
472.656	0.000118097	
473.145	0.000121269	
473.633	0.000124531	
474.121	0.000123737	
474.609	0.000118653	
475.098	0.000116509	
475.586	0.000117273	
476.074	0.000116409	
476.563	0.000116886	
477.051	0.000114088	
477.539	0.000116621	
478.027	0.000121115	
478.516	0.000119806	
479.004	0.000122051	
479.492	0.000119589	
479.98	0.000112212	
480.469	0.000116663	
480.957	0.000116237	
481.445	0.000116554	
481.934	0.000116738	
482.422	0.000116168	
482.91	0.0001158	
483.398	0.000116201	
483.887	0.000122296	
484.375	0.000117822	
484.863	0.000115597	
485.352	0.000115069	
485.84	0.000116514	
486.328	0.000115058	
486.816	0.000115353	
487.305	0.000114586	
487.793	0.000114865	
488.281	0.000114509	
488.77	0.000115026	
489.258	0.000116423	
489.746	0.000118624	
490.234	0.000114496	
490.723	0.000113384	
491.211	0.000114022	
491.699	0.000115048	
492.188	0.000113737	
492.676	0.000113016	
493.164	0.000113524	
493.652	0.000113416	
494.141	0.000113369	
494.629	0.000108747	
495.117	0.000119469	
495.605	0.000109026	
496.094	0.000113318	
496.582	0.000112914	
497.07	0.000112603	
497.559	0.000113231	
498.047	0.000112974	
498.535	0.00011315	
499.023	0.000112645	
499.512	0.000109002	
500	0.000116531	
500.488	0.000108427	
500.977	0.000110916	
501.465	0.000111755	
501.953	0.000110743	
502.441	0.00011023	
502.93	0.000110722	
503.418	0.00011123	
503.906	0.000110828	
504.395	0.00010892	
504.883	0.000111072	
505.371	0.000115026	
505.859	0.000116373	
506.348	0.000116335	
506.836	0.000110979	
507.324	0.000108113	
507.813	0.000109951	
508.301	0.000108197	
508.789	0.00010947	
509.277	0.000110091	
509.766	0.000109833	
510.254	0.000110753	
510.742	0.000108779	
511.23	0.000124753	
511.719	0.000112081	
512.207	0.000111252	
512.695	0.000109359	
513.184	0.000108347	
513.672	0.000109029	
514.16	0.000108572	
514.648	0.000109065	
515.137	0.000111648	
515.625	0.000109403	
516.113	0.000115654	
516.602	0.00011115	
517.09	0.000112522	
517.578	0.000108647	
518.066	0.000112351	
518.555	0.00010872	
519.043	0.000109596	
519.531	0.000107696	
520.02	0.000104735	
520.508	0.000107954	
520.996	0.00011003	
521.484	0.000110337	
521.973	0.000105303	
522.461	0.000108268	
522.949	0.000103919	
523.438	0.000107733	
523.926	0.00010737	
524.414	0.000107239	
524.902	0.000105654	
525.391	0.00010661	
525.879	0.000105122	
526.367	0.00010663	
526.855	0.000105115	
527.344	0.000112151	
527.832	9.7939e-005	
528.32	0.000106362	
528.809	0.000105681	
529.297	0.000105611	
529.785	0.000104944	
530.273	0.000105806	
530.762	0.000107649	
531.25	0.000105523	
531.738	0.000101623	
532.227	0.000105315	
532.715	0.000106512	
533.203	0.000106885	
533.691	0.000107979	
534.18	0.000105615	
534.668	0.000104443	
535.156	0.000105362	
535.645	0.000105668	
536.133	0.000105214	
536.621	0.000108304	
537.109	0.00010557	
537.598	0.000103629	
538.086	0.00010468	
538.574	0.000111808	
539.063	0.000104429	
539.551	0.000101675	
540.039	0.000104488	
540.527	0.000103959	
541.016	0.000104062	
541.504	0.000104077	
541.992	0.000104366	
542.48	0.000105762	
542.969	0.000105906	
543.457	0.00011421	
543.945	0.000103295	
544.434	0.000104021	
544.922	0.000102634	
545.41	0.000103053	
545.898	0.000102767	
546.387	0.000102414	
546.875	0.000102311	
547.363	0.00010169	
547.852	0.000102609	
548.34	0.000107938	
548.828	0.000110666	
549.316	0.000107597	
549.805	0.0001024	
550.293	0.000105032	
550.781	0.000102123	
551.27	0.00010262	
551.758	0.000102012	
552.246	0.00010027	
552.734	0.000101773	
553.223	0.000105389	
553.711	0.000102382	
554.199	9.57668e-005	
554.688	0.00010247	
555.176	9.93282e-005	
555.664	0.000101847	
556.152	0.000101775	
556.641	0.000100984	
557.129	0.00010025	
557.617	0.000100806	
558.105	0.000101265	
558.594	0.00010046	
559.082	0.000102207	
559.57	0.0001039	
560.059	9.07917e-005	
560.547	0.000100788	
561.035	0.000100972	
561.523	0.000100501	
562.012	9.97175e-005	
562.5	0.000100494	
562.988	0.000101364	
563.477	9.97009e-005	
563.965	9.7352e-005	
564.453	0.000100826	
564.941	0.000104957	
565.43	9.93536e-005	
565.918	0.000101574	
566.406	9.9561e-005	
566.895	0.000101044	
567.383	9.91813e-005	
567.871	9.83699e-005	
568.359	9.96109e-005	
568.848	9.94472e-005	
569.336	9.89742e-005	
569.824	9.68817e-005	
570.313	0.000106282	
570.801	0.000105884	
571.289	9.89646e-005	
571.777	9.6048e-005	
572.266	9.83406e-005	
572.754	9.84623e-005	
573.242	9.83643e-005	
573.73	9.75852e-005	
574.219	9.84769e-005	
574.707	9.83663e-005	
575.195	9.81308e-005	
575.684	0.000105291	
576.172	9.86409e-005	
576.66	9.83247e-005	
577.148	9.75612e-005	
577.637	9.73192e-005	
578.125	9.7725e-005	
578.613	9.79214e-005	
579.102	9.77461e-005	
579.59	9.73521e-005	
580.078	9.85415e-005	
580.566	0.000100363	
581.055	9.91217e-005	
581.543	0.000100512	
582.031	9.67914e-005	
582.52	9.80187e-005	
583.008	9.66675e-005	
583.496	9.64431e-005	
583.984	9.66815e-005	
584.473	9.70116e-005	
584.961	9.67583e-005	
585.449	9.72318e-005	
585.938	9.6411e-005	
586.426	9.09804e-005	
586.914	9.70716e-005	
587.402	9.38433e-005	
587.891	9.56745e-005	
588.379	9.57144e-005	
588.867	9.56634e-005	
589.355	9.43832e-005	
589.844	9.56648e-005	
590.332	9.76883e-005	
590.82	9.53897e-005	
591.309	9.64824e-005	
591.797	0.000100228	
592.285	8.96084e-005	
592.773	9.6697e-005	
593.262	9.70447e-005	
593.75	9.55224e-005	
594.238	9.61919e-005	
594.727	9.52042e-005	
595.215	9.46681e-005	
595.703	9.48546e-005	
596.191	9.32487e-005	
596.68	9.56965e-005	
597.168	0.000101406	
597.656	9.47748e-005	
598.145	9.59797e-005	
598.633	9.46553e-005	
599.121	9.47727e-005	
599.609	9.43775e-005	
600.098	9.42689e-005	
600.586	9.45635e-005	
601.074	9.15149e-005	
601.563	9.43349e-005	
602.051	9.89374e-005	
602.539	9.92102e-005	
603.027	9.54169e-005	
603.516	9.34815e-005	
604.004	9.00841e-005	
604.492	9.35399e-005	
604.98	9.4525e-005	
605.469	9.38633e-005	
605.957	9.32084e-005	
606.445	9.34373e-005	
606.934	9.39023e-005	
607.422	9.38449e-005	
607.91	9.3876e-005	
608.398	9.29814e-005	
608.887	9.33971e-005	
609.375	9.26561e-005	
609.863	9.32466e-005	
610.352	9.25076e-005	
610.84	9.38785e-005	
611.328	9.26763e-005	
611.816	9.47605e-005	
612.305	9.26939e-005	
612.793	8.69379e-005	
613.281	9.36073e-005	
613.77	9.62394e-005	
614.258	9.2549e-005	
614.746	9.54214e-005	
615.234	9.19046e-005	
615.723	8.99806e-005	
616.211	9.14377e-005	
616.699	9.14653e-005	
617.188	9.18443e-005	
617.676	9.0516e-005	
618.164	9.16967e-005	
618.652	9.38475e-005	
619.141	9.27679e-005	
619.629	9.0612e-005	
620.117	9.17559e-005	
620.605	8.9984e-005	
621.094	9.11748e-005	
621.582	9.19269e-005	
622.07	9.09263e-005	
622.559	8.85229e-005	
623.047	9.11925e-005	
623.535	9.82876e-005	
624.023	9.38854e-005	
624.512	8.4123e-005	
625	9.21129e-005	
625.488	9.14059e-005	
625.977	9.16552e-005	
626.465	9.11228e-005	
626.953	9.09019e-005	
627.441	9.10593e-005	
627.93	9.05964e-005	
628.418	8.99263e-005	
628.906	9.09267e-005	
629.395	9.09065e-005	
629.883	9.08596e-005	
630.371	9.14299e-005	
630.859	9.02325e-005	
631.348	9.02616e-005	
631.836	9.01066e-005	
632.324	9.0021e-005	
632.813	8.96265e-005	
633.301	8.8336e-005	
633.789	8.91217e-005	
634.277	9.21204e-005	
634.766	9.32626e-005	
635.254	9.14672e-005	
635.742	9.03264e-005	
636.23	8.64512e-005	
636.719	8.95559e-005	
637.207	8.97677e-005	
637.695	8.93926e-005	
638.184	8.89695e-005	
638.672	8.88807e-005	
639.16	9.00514e-005	
639.648	8.92979e-005	
640.137	8.55781e-005	
640.625	8.85535e-005	
641.113	8.92755e-005	
641.602	8.88644e-005	
642.09	8.95815e-005	
642.578	8.87289e-005	
643.066	8.9446e-005	
643.555	8.88639e-005	
644.043	8.95647e-005	
644.531	8.90446e-005	
645.02	8.51478e-005	
645.508	9.41094e-005	
645.996	9.00193e-005	
646.484	8.73443e-005	
646.973	8.97485e-005	
647.461	8.74039e-005	
647.949	8.68265e-005	
648.438	8.77226e-005	
648.926	8.7325e-005	
649.414	8.76819e-005	
649.902	8.77158e-005	
650.391	8.74949e-005	
650.879	9.38937e-005	
651.367	8.78832e-005	
651.855	8.60016e-005	
652.344	8.70793e-005	
652.832	8.60607e-005	
653.32	8.71857e-005	
653.809	8.53886e-005	
654.297	8.73633e-005	
654.785	8.68659e-005	
655.273	8.67773e-005	
655.762	8.83861e-005	
656.25	8.86641e-005	
656.738	8.67845e-005	
657.227	8.80295e-005	
657.715	8.77056e-005	
658.203	8.67385e-005	
658.691	8.50786e-005	
659.18	8.61779e-005	
659.668	8.74346e-005	
660.156	8.63268e-005	
660.645	8.59155e-005	
661.133	8.66724e-005	
661.621	8.51272e-005	
662.109	8.64433e-005	
662.598	8.64264e-005	
663.086	8.62425e-005	
663.574	8.54607e-005	
664.063	8.61641e-005	
664.551	8.58103e-005	
665.039	8.58376e-005	
665.527	8.5154e-005	
666.016	8.60059e-005	
666.504	8.72188e-005	
666.992	8.84311e-005	
667.48	8.97446e-005	
667.969	8.59264e-005	
668.457	8.21393e-005	
668.945	8.55988e-005	
669.434	8.6277e-005	
669.922	8.52628e-005	
670.41	8.41787e-005	
670.898	8.48433e-005	
671.387	8.61538e-005	
671.875	8.47878e-005	
672.363	8.63443e-005	
672.852	8.54303e-005	
673.34	8.71517e-005	
673.828	8.49439e-005	
674.316	8.45491e-005	
674.805	8.46862e-005	
675.293	8.48552e-005	
675.781	8.45743e-005	
676.27	8.42796e-005	
676.758	8.498e-005	
677.246	8.57693e-005	
677.734	8.68488e-005	
678.223	8.39969e-005	
678.711	8.39979e-005	
679.199	8.67043e-005	
679.688	8.42642e-005	
680.176	8.34177e-005	
680.664	8.41635e-005	
681.152	8.32806e-005	
681.641	8.43546e-005	
682.129	8.39631e-005	
682.617	8.44007e-005	
683.105	8.33126e-005	
683.594	8.28342e-005	
684.082	8.13326e-005	
684.57	8.31508e-005	
685.059	8.34306e-005	
685.547	8.32107e-005	
686.035	8.25874e-005	
686.523	8.32975e-005	
687.012	8.37091e-005	
687.5	8.33176e-005	
687.988	8.15455e-005	
688.477	8.47345e-005	
688.965	8.50819e-005	
689.453	8.4442e-005	
689.941	8.42627e-005	
690.43	8.28522e-005	
690.918	8.232e-005	
691.406	8.27817e-005	
691.895	8.35931e-005	
692.383	8.27375e-005	
692.871	8.33397e-005	
693.359	8.27182e-005	
693.848	8.59397e-005	
694.336	8.33408e-005	
694.824	8.33911e-005	
695.313	8.25787e-005	
695.801	8.14256e-005	
696.289	8.21151e-005	
696.777	8.36046e-005	
697.266	8.19427e-005	
697.754	8.2545e-005	
698.242	8.21922e-005	
698.73	8.53255e-005	
699.219	8.4886e-005	
699.707	8.41666e-005	
700.195	8.17566e-005	
700.684	8.07599e-005	
701.172	8.24207e-005	
701.66	8.26935e-005	
702.148	8.1807e-005	
702.637	8.14508e-005	
703.125	8.12976e-005	
703.613	8.17759e-005	
704.102	8.18792e-005	
704.59	8.213e-005	
705.078	8.10759e-005	
705.566	8.35929e-005	
706.055	8.10232e-005	
706.543	8.11981e-005	
707.031	8.10323e-005	
707.52	8.10707e-005	
708.008	8.07953e-005	
708.496	8.11957e-005	
708.984	8.04784e-005	
709.473	7.81665e-005	
709.961	8.26137e-005	
710.449	7.86333e-005	
710.938	8.13659e-005	
711.426	8.18975e-005	
711.914	8.07056e-005	
712.402	8.05936e-005	
712.891	8.03609e-005	
713.379	8.06754e-005	
713.867	8.05249e-005	
714.355	7.9752e-005	
714.844	7.97414e-005	
715.332	7.73318e-005	
715.82	8.13045e-005	
716.309	7.94187e-005	
716.797	8.06072e-005	
717.285	8.15045e-005	
717.773	8.03431e-005	
718.262	8.06941e-005	
718.75	8.02294e-005	
719.238	8.06081e-005	
719.727	8.04705e-005	
720.215	8.08555e-005	
720.703	8.21541e-005	
721.191	8.56133e-005	
721.68	7.96836e-005	
722.168	7.89393e-005	
722.656	7.98313e-005	
723.145	7.92154e-005	
723.633	7.98566e-005	
724.121	8.02614e-005	
724.609	7.97676e-005	
725.098	8.01654e-005	
725.586	7.96959e-005	
726.074	8.22311e-005	
726.563	7.87984e-005	
727.051	7.96821e-005	
727.539	7.90766e-005	
728.027	7.67636e-005	
728.516	7.90952e-005	
729.004	7.80817e-005	
729.492	7.89182e-005	
729.98	7.93644e-005	
730.469	7.88344e-005	
730.957	8.07814e-005	
731.445	8.12984e-005	
731.934	7.72062e-005	
732.422	7.94949e-005	
732.91	7.76128e-005	
733.398	7.86401e-005	
733.887	7.9205e-005	
734.375	7.81994e-005	
734.863	7.80832e-005	
735.352	7.82617e-005	
735.84	7.82445e-005	
736.328	7.83272e-005	
736.816	7.80363e-005	
737.305	7.83632e-005	
737.793	7.94119e-005	
738.281	7.844e-005	
738.77	7.78441e-005	
739.258	7.79949e-005	
739.746	7.80679e-005	
740.234	7.79069e-005	
740.723	7.73608e-005	
741.211	7.81557e-005	
741.699	7.55623e-005	
742.188	7.9699e-005	
742.676	7.39153e-005	
743.164	7.71939e-005	
743.652	7.74167e-005	
744.141	7.75754e-005	
744.629	7.86725e-005	
745.117	7.74443e-005	
745.605	7.70794e-005	
746.094	7.72512e-005	
746.582	7.64912e-005	
747.07	7.71868e-005	
747.559	7.73553e-005	
748.047	7.74469e-005	
748.535	7.60679e-005	
749.023	7.71469e-005	
749.512	7.64461e-005	
750	7.69307e-005	
750.488	7.51982e-005	
750.977	7.68967e-005	
751.465	7.83502e-005	
751.953	7.67126e-005	
752.441	7.80036e-005	
752.93	7.79264e-005	
753.418	8.7255e-005	
753.906	7.72957e-005	
754.395	7.80014e-005	
754.883	7.65611e-005	
755.371	7.67746e-005	
755.859	7.63989e-005	
756.348	7.78313e-005	
756.836	7.65348e-005	
757.324	7.62912e-005	
757.813	7.63504e-005	
758.301	7.48893e-005	
758.789	7.61059e-005	
759.277	7.66322e-005	
759.766	7.60778e-005	
760.254	7.51436e-005	
760.742	7.59234e-005	
761.23	7.4801e-005	
761.719	7.59375e-005	
762.207	7.51649e-005	
762.695	7.62547e-005	
763.184	7.73124e-005	
763.672	7.56526e-005	
764.16	7.27776e-005	
764.648	7.65651e-005	
765.137	7.44999e-005	
765.625	7.61134e-005	
766.113	7.65702e-005	
766.602	7.55272e-005	
767.09	7.43536e-005	
767.578	7.5534e-005	
768.066	7.73286e-005	
768.555	7.56671e-005	
769.043	7.71286e-005	
769.531	7.6032e-005	
770.02	7.63385e-005	
770.508	7.49421e-005	
770.996	7.58429e-005	
771.484	7.51406e-005	
771.973	7.5403e-005	
772.461	7.50201e-005	
772.949	7.44897e-005	
773.438	7.50694e-005	
773.926	7.37818e-005	
774.414	7.78837e-005	
774.902	7.21184e-005	
775.391	7.51875e-005	
775.879	7.52412e-005	
776.367	7.5554e-005	
776.855	7.46895e-005	
777.344	7.48471e-005	
777.832	7.42063e-005	
778.32	7.42508e-005	
778.809	7.38398e-005	
779.297	7.42762e-005	
779.785	7.39698e-005	
780.273	7.40643e-005	
780.762	7.31948e-005	
781.25	7.44404e-005	
781.738	7.49891e-005	
782.227	7.42816e-005	
782.715	7.3959e-005	
783.203	7.4235e-005	
783.691	7.48014e-005	
784.18	7.42893e-005	
784.668	7.35694e-005	
785.156	7.54582e-005	
785.645	8.08642e-005	
786.133	7.40215e-005	
786.621	7.42521e-005	
787.109	7.37954e-005	
787.598	7.52283e-005	
788.086	7.38998e-005	
788.574	7.44891e-005	
789.063	7.36037e-005	
789.551	7.27437e-005	
790.039	7.36458e-005	
790.527	7.34749e-005	
791.016	7.45142e-005	
791.504	7.39401e-005	
791.992	7.37616e-005	
792.48	7.25606e-005	
792.969	7.36289e-005	
793.457	7.29995e-005	
793.945	7.33712e-005	
794.434	7.29103e-005	
794.922	7.33746e-005	
795.41	7.51368e-005	
795.898	7.47044e-005	
796.387	7.0258e-005	
796.875	7.32836e-005	
797.363	6.97002e-005	
797.852	7.35197e-005	
798.34	7.27319e-005	
798.828	7.30343e-005	
799.316	7.24017e-005	
799.805	7.27955e-005	
800.293	7.44169e-005	
800.781	7.29739e-005	
801.27	7.27698e-005	
801.758	7.26508e-005	
802.246	7.37992e-005	
802.734	7.2197e-005	
803.223	7.25706e-005	
803.711	7.23152e-005	
804.199	7.25528e-005	
804.688	7.23794e-005	
805.176	7.22967e-005	
805.664	7.20396e-005	
806.152	7.13696e-005	
806.641	7.28177e-005	
807.129	7.49539e-005	
807.617	7.29937e-005	
808.105	7.41917e-005	
808.594	7.2512e-005	
809.082	7.19445e-005	
809.57	7.24253e-005	
810.059	7.1885e-005	
810.547	7.1996e-005	
811.035	7.19835e-005	
811.523	7.19009e-005	
812.012	7.2792e-005	
812.5	7.21589e-005	
812.988	7.21302e-005	
813.477	7.2033e-005	
813.965	7.22536e-005	
814.453	7.19023e-005	
814.941	7.19141e-005	
815.43	7.179e-005	
815.918	7.10189e-005	
816.406	7.20912e-005	
816.895	7.19282e-005	
817.383	7.29804e-005	
817.871	7.2024e-005	
818.359	7.08238e-005	
818.848	7.14386e-005	
819.336	7.113e-005	
819.824	7.27708e-005	
820.313	7.13786e-005	
820.801	7.18285e-005	
821.289	7.11093e-005	
821.777	7.03586e-005	
822.266	7.1167e-005	
822.754	7.1018e-005	
823.242	7.1008e-005	
823.73	7.28073e-005	
824.219	7.07486e-005	
824.707	7.06055e-005	
825.195	7.10729e-005	
825.684	7.04858e-005	
826.172	7.10301e-005	
826.66	7.00246e-005	
827.148	7.10964e-005	
827.637	7.10507e-005	
828.125	7.14834e-005	
828.613	7.04181e-005	
829.102	7.10989e-005	
829.59	6.93584e-005	
830.078	7.02993e-005	
830.566	6.93806e-005	
831.055	7.02313e-005	
831.543	6.99061e-005	
832.031	7.06132e-005	
832.52	7.11768e-005	
833.008	7.04392e-005	
833.496	6.85675e-005	
833.984	7.00238e-005	
834.473	6.95746e-005	
834.961	6.99357e-005	
835.449	6.93438e-005	
835.938	7.04229e-005	
836.426	6.95125e-005	
836.914	6.99375e-005	
837.402	6.99691e-005	
837.891	7.02752e-005	
838.379	6.99915e-005	
838.867	7.02054e-005	
839.355	7.56293e-005	
839.844	7.07155e-005	
840.332	7.03765e-005	
840.82	7.01801e-005	
841.309	6.95565e-005	
841.797	6.9679e-005	
842.285	6.92779e-005	
842.773	6.97466e-005	
843.262	7.0634e-005	
843.75	6.97886e-005	
844.238	7.11611e-005	
844.727	6.96844e-005	
845.215	7.00549e-005	
845.703	6.94706e-005	
846.191	6.98006e-005	
846.68	6.92747e-005	
847.168	6.90468e-005	
847.656	6.92981e-005	
848.145	6.94481e-005	
848.633	6.93511e-005	
849.121	6.98805e-005	
849.609	7.03971e-005	
850.098	6.75216e-005	
850.586	6.93686e-005	
851.074	7.0417e-005	
851.563	6.89421e-005	
852.051	6.96772e-005	
852.539	6.90284e-005	
853.027	7.00661e-005	
853.516	6.89006e-005	
854.004	6.70753e-005	
854.492	6.87003e-005	
854.98	6.92063e-005	
855.469	6.88915e-005	
855.957	6.88552e-005	
856.445	6.8933e-005	
856.934	6.80919e-005	
857.422	6.84325e-005	
857.91	6.82351e-005	
858.398	6.86625e-005	
858.887	6.848e-005	
859.375	6.87209e-005	
859.863	6.64743e-005	
860.352	6.86949e-005	
860.84	6.96287e-005	
861.328	6.88534e-005	
861.816	6.80858e-005	
862.305	6.86559e-005	
862.793	6.83401e-005	
863.281	6.83953e-005	
863.77	6.85733e-005	
864.258	6.84593e-005	
864.746	6.93147e-005	
865.234	6.82687e-005	
865.723	6.60231e-005	
866.211	6.81616e-005	
866.699	6.84918e-005	
867.188	6.77956e-005	
867.676	6.83359e-005	
868.164	6.79579e-005	
868.652	6.74954e-005	
869.141	6.77569e-005	
869.629	6.7856e-005	
870.117	6.795e-005	
870.605	6.88337e-005	
871.094	6.96603e-005	
871.582	6.87382e-005	
872.07	6.79445e-005	
872.559	6.71296e-005	
873.047	6.76389e-005	
873.535	6.67989e-005	
874.023	6.75709e-005	
874.512	6.77382e-005	
875	6.71795e-005	
875.488	6.82439e-005	
875.977	6.74984e-005	
876.465	6.72507e-005	
876.953	6.7317e-005	
877.441	6.85989e-005	
877.93	6.76429e-005	
878.418	6.6554e-005	
878.906	6.72204e-005	
879.395	6.84381e-005	
879.883	6.69238e-005	
880.371	6.7029e-005	
880.859	6.71451e-005	
881.348	6.77775e-005	
881.836	6.73766e-005	
882.324	6.57834e-005	
882.813	6.68922e-005	
883.301	6.89954e-005	
883.789	6.71261e-005	
884.277	6.72969e-005	
884.766	6.68794e-005	
885.254	6.77913e-005	
885.742	6.66993e-005	
886.23	6.64387e-005	
886.719	6.68563e-005	
887.207	6.72112e-005	
887.695	6.69212e-005	
888.184	6.62618e-005	
888.672	6.68402e-005	
889.16	6.57272e-005	
889.648	6.65514e-005	
890.137	6.58721e-005	
890.625	6.68841e-005	
891.113	6.62049e-005	
891.602	6.63829e-005	
892.09	6.54362e-005	
892.578	6.69634e-005	
893.066	6.94589e-005	
893.555	6.66881e-005	
894.043	6.53465e-005	
894.531	6.63862e-005	
895.02	6.73672e-005	
895.508	6.61679e-005	
895.996	6.57242e-005	
896.484	6.62381e-005	
896.973	6.67357e-005	
897.461	6.61399e-005	
897.949	6.44007e-005	
898.438	6.61511e-005	
898.926	6.57505e-005	
899.414	6.59975e-005	
899.902	6.67e-005	
900.391	6.57652e-005	
900.879	6.64642e-005	
901.367	6.59457e-005	
901.855	6.65874e-005	
902.344	6.58246e-005	
902.832	6.60428e-005	
903.32	6.57534e-005	
903.809	6.52938e-005	
904.297	6.61879e-005	
904.785	6.50562e-005	
905.273	6.54792e-005	
905.762	6.40997e-005	
906.25	6.56425e-005	
906.738	6.60414e-005	
907.227	6.55597e-005	
907.715	6.52595e-005	
908.203	6.55823e-005	
908.691	6.62799e-005	
909.18	6.481e-005	
909.668	6.45015e-005	
910.156	6.52534e-005	
910.645	6.49182e-005	
911.133	6.54577e-005	
911.621	6.47352e-005	
912.109	6.52205e-005	
912.598	6.46905e-005	
913.086	6.52866e-005	
913.574	6.41554e-005	
914.063	6.59374e-005	
914.551	6.61095e-005	
915.039	6.51446e-005	
915.527	6.69054e-005	
916.016	6.49158e-005	
916.504	6.52423e-005	
916.992	6.47073e-005	
917.48	6.46666e-005	
917.969	6.47568e-005	
918.457	6.53065e-005	
918.945	6.47952e-005	
919.434	6.6262e-005	
919.922	6.50836e-005	
920.41	6.42647e-005	
920.898	6.46229e-005	
921.387	6.41912e-005	
921.875	6.48792e-005	
922.363	6.3802e-005	
922.852	6.47718e-005	
923.34	6.46464e-005	
923.828	6.46696e-005	
924.316	6.5511e-005	
924.805	6.50409e-005	
925.293	6.60846e-005	
925.781	6.45299e-005	
926.27	6.40373e-005	
926.758	6.41452e-005	
927.246	6.49439e-005	
927.734	6.42722e-005	
928.223	6.49796e-005	
928.711	6.41556e-005	
929.199	6.39341e-005	
929.688	6.41747e-005	
930.176	6.38076e-005	
930.664	6.40855e-005	
931.152	6.44044e-005	
931.641	6.43278e-005	
932.129	6.44132e-005	
932.617	6.41276e-005	
933.105	6.50276e-005	
933.594	6.3958e-005	
934.082	6.44876e-005	
934.57	6.40678e-005	
935.059	6.40532e-005	
935.547	6.43971e-005	
936.035	6.36583e-005	
936.523	6.40897e-005	
937.012	6.32535e-005	
937.5	6.39908e-005	
937.988	6.20851e-005	
938.477	6.3549e-005	
938.965	6.40999e-005	
939.453	6.36678e-005	
939.941	6.33896e-005	
940.43	6.36131e-005	
940.918	6.30724e-005	
941.406	6.36168e-005	
941.895	6.34934e-005	
942.383	6.33131e-005	
942.871	6.39411e-005	
943.359	6.32311e-005	
943.848	6.3675e-005	
944.336	6.3125e-005	
944.824	6.28e-005	
945.313	6.36649e-005	
945.801	6.34237e-005	
946.289	6.37444e-005	
946.777	6.52083e-005	
947.266	6.40451e-005	
947.754	6.6393e-005	
948.242	6.31017e-005	
948.73	6.24469e-005	
949.219	6.30359e-005	
949.707	6.25079e-005	
950.195	6.27548e-005	
950.684	6.33032e-005	
951.172	6.30072e-005	
951.66	6.45828e-005	
952.148	6.30072e-005	
952.637	6.23702e-005	
953.125	6.29722e-005	
953.613	6.2759e-005	
954.102	6.29703e-005	
954.59	6.28374e-005	
955.078	6.29276e-005	
955.566	6.33883e-005	
956.055	6.27052e-005	
956.543	6.29162e-005	
957.031	6.31965e-005	
957.52	6.17319e-005	
958.008	6.24685e-005	
958.496	6.12291e-005	
958.984	6.26071e-005	
959.473	6.35087e-005	
959.961	6.25422e-005	
960.449	6.31239e-005	
960.938	6.24296e-005	
961.426	6.32416e-005	
961.914	6.22026e-005	
962.402	6.27834e-005	
962.891	6.27256e-005	
963.379	6.2574e-005	
963.867	6.21964e-005	
964.355	6.2176e-005	
964.844	6.24061e-005	
965.332	6.23604e-005	
965.82	6.23352e-005	
966.309	6.13352e-005	
966.797	6.2086e-005	
967.285	6.19779e-005	
967.773	6.2204e-005	
968.262	6.41148e-005	
968.75	6.24285e-005	
969.238	6.19939e-005	
969.727	6.24225e-005	
970.215	6.08543e-005	
970.703	6.2086e-005	
971.191	6.23953e-005	
971.68	6.21329e-005	
972.168	6.23766e-005	
972.656	6.19721e-005	
973.145	6.16646e-005	
973.633	6.18438e-005	
974.121	6.19235e-005	
974.609	6.16389e-005	
975.098	6.20755e-005	
975.586	6.18717e-005	
976.074	6.19934e-005	
976.563	6.17317e-005	
977.051	6.152e-005	
977.539	6.17243e-005	
978.027	6.2303e-005	
978.516	6.18488e-005	
979.004	6.21044e-005	
979.492	6.14261e-005	
979.98	6.23955e-005	
980.469	6.12857e-005	
980.957	6.06932e-005	
981.445	6.13161e-005	
981.934	6.06046e-005	
982.422	6.12749e-005	
982.91	6.1041e-005	
983.398	6.12772e-005	
983.887	6.04244e-005	
984.375	6.10064e-005	
984.863	6.02966e-005	
985.352	6.13503e-005	
985.84	6.11056e-005	
986.328	6.12522e-005	
986.816	6.10614e-005	
987.305	6.09659e-005	
987.793	6.0775e-005	
988.281	6.09647e-005	
988.77	6.02324e-005	
989.258	6.10536e-005	
989.746	6.06346e-005	
990.234	6.16698e-005	
990.723	6.02663e-005	
991.211	6.12298e-005	
991.699	6.1792e-005	
992.188	6.10135e-005	
992.676	6.1681e-005	
993.164	6.09569e-005	
993.652	6.08683e-005	
994.141	6.09002e-005	
994.629	6.05724e-005	
995.117	6.09105e-005	
995.605	6.20011e-005	
996.094	6.06908e-005	
996.582	6.08025e-005	
997.07	6.06823e-005	
997.559	6.06155e-005	
998.047	6.08166e-005	
998.535	6.06511e-005	
999.023	6.08344e-005	
999.512	6.04405e-005	
1000	6.03859e-005	
1000.49	6.15591e-005	
1000.98	6.04684e-005	
1001.46	5.99474e-005	
1001.95	6.03823e-005	
1002.44	5.86801e-005	
1002.93	6.04984e-005	
1003.42	6.00492e-005	
1003.91	6.05249e-005	
1004.39	6.03851e-005	
1004.88	6.0372e-005	
1005.37	6.13612e-005	
1005.86	5.9981e-005	
1006.35	5.98236e-005	
1006.84	6.01865e-005	
1007.32	6.07242e-005	
1007.81	6.01345e-005	
1008.3	5.94887e-005	
1008.79	5.99522e-005	
1009.28	6.09289e-005	
1009.77	6.03801e-005	
1010.25	6.03133e-005	
1010.74	6.05724e-005	
1011.23	5.94339e-005	
1011.72	6.01051e-005	
1012.21	6.04954e-005	
1012.7	5.95897e-005	
1013.18	6.02823e-005	
1013.67	5.96844e-005	
1014.16	5.97926e-005	
1014.65	5.97306e-005	
1015.14	5.97814e-005	
1015.63	5.97716e-005	
1016.11	5.94647e-005	
1016.6	5.98929e-005	
1017.09	5.90039e-005	
1017.58	5.96534e-005	
1018.07	5.98275e-005	
1018.55	5.9832e-005	
1019.04	5.98577e-005	
1019.53	5.95815e-005	
1020.02	5.9444e-005	
1020.51	5.94689e-005	
1021	5.9632e-005	
1021.48	5.9698e-005	
1021.97	6.1184e-005	
1022.46	6.01342e-005	
1022.95	6.07668e-005	
1023.44	5.94154e-005	
1023.93	6.0361e-005	
1024.41	5.93726e-005	
1024.9	5.86832e-005	
1025.39	5.92594e-005	
1025.88	5.92486e-005	
1026.37	5.93146e-005	
1026.86	5.96347e-005	
1027.34	5.93757e-005	
1027.83	5.93753e-005	
1028.32	5.91882e-005	
1028.81	5.92952e-005	
1029.3	5.93158e-005	
1029.79	5.94498e-005	
1030.27	5.92194e-005	
1030.76	5.89201e-005	
1031.25	5.91067e-005	
1031.74	5.86595e-005	
1032.23	5.90368e-005	
1032.71	5.86351e-005	
1033.2	5.90251e-005	
1033.69	5.8575e-005	
1034.18	5.91542e-005	
1034.67	5.93317e-005	
1035.16	5.89705e-005	
1035.64	5.87112e-005	
1036.13	5.89939e-005	
1036.62	5.84395e-005	
1037.11	5.89097e-005	
1037.6	5.8842e-005	
1038.09	5.86511e-005	
1038.57	5.76518e-005	
1039.06	5.87252e-005	
1039.55	5.86484e-005	
1040.04	5.87017e-005	
1040.53	5.86442e-005	
1041.02	5.86162e-005	
1041.5	5.9547e-005	
1041.99	5.86838e-005	
1042.48	5.92286e-005	
1042.97	5.83144e-005	
1043.46	5.83276e-005	
1043.95	5.93778e-005	
1044.43	5.83763e-005	
1044.92	5.85012e-005	
1045.41	5.90628e-005	
1045.9	5.83943e-005	
1046.39	5.90775e-005	
1046.88	5.84968e-005	
1047.36	5.81071e-005	
1047.85	5.84457e-005	
1048.34	5.89336e-005	
1048.83	5.84521e-005	
1049.32	5.89184e-005	
1049.8	5.83204e-005	
1050.29	5.79321e-005	
1050.78	5.84429e-005	
1051.27	5.80178e-005	
1051.76	5.84708e-005	
1052.25	5.86258e-005	
1052.73	5.81745e-005	
1053.22	5.8541e-005	
1053.71	5.83678e-005	
1054.2	5.84028e-005	
1054.69	5.73304e-005	
1055.18	5.86288e-005	
1055.66	5.80891e-005	
1056.15	5.86601e-005	
1056.64	5.78787e-005	
1057.13	5.83135e-005	
1057.62	5.79325e-005	
1058.11	5.84162e-005	
1058.59	5.78442e-005	
1059.08	5.67929e-005	
1059.57	5.78693e-005	
1060.06	5.70163e-005	
1060.55	5.77753e-005	
1061.04	5.69494e-005	
1061.52	5.76187e-005	
1062.01	5.74962e-005	
1062.5	5.77716e-005	
1062.99	5.77556e-005	
1063.48	5.77215e-005	
1063.96	5.70541e-005	
1064.45	5.75938e-005	
1064.94	6.01181e-005	
1065.43	5.82681e-005	
1065.92	5.77532e-005	
1066.41	5.78985e-005	
1066.89	5.76268e-005	
1067.38	5.78399e-005	
1067.87	5.8122e-005	
1068.36	5.75015e-005	
1068.85	5.74196e-005	
1069.34	5.75309e-005	
1069.82	5.79291e-005	
1070.31	5.76264e-005	
1070.8	5.66924e-005	
1071.29	5.73482e-005	
1071.78	5.73223e-005	
1072.27	5.73012e-005	
1072.75	5.76719e-005	
1073.24	5.74954e-005	
1073.73	5.72938e-005	
1074.22	5.73575e-005	
1074.71	5.72152e-005	
1075.2	5.74387e-005	
1075.68	5.60883e-005	
1076.17	5.71037e-005	
1076.66	5.5791e-005	
1077.15	5.70943e-005	
1077.64	5.70082e-005	
1078.13	5.71791e-005	
1078.61	5.76281e-005	
1079.1	5.72112e-005	
1079.59	5.69858e-005	
1080.08	5.70968e-005	
1080.57	5.65494e-005	
1081.05	5.66792e-005	
1081.54	5.74329e-005	
1082.03	5.71442e-005	
1082.52	5.72183e-005	
1083.01	5.67623e-005	
1083.5	5.6236e-005	
1083.98	5.70419e-005	
1084.47	5.69314e-005	
1084.96	5.68782e-005	
1085.45	5.71036e-005	
1085.94	5.68946e-005	
1086.43	5.57145e-005	
1086.91	5.73242e-005	
1087.4	5.66082e-005	
1087.89	5.65862e-005	
1088.38	5.78154e-005	
1088.87	5.66717e-005	
1089.36	5.68054e-005	
1089.84	5.67857e-005	
1090.33	5.67431e-005	
1090.82	5.67673e-005	
1091.31	5.64223e-005	
1091.8	5.64977e-005	
1092.29	5.63645e-005	
1092.77	5.68497e-005	
1093.26	5.66092e-005	
1093.75	5.64969e-005	
1094.24	5.65327e-005	
1094.73	5.65839e-005	
1095.21	5.65417e-005	
1095.7	5.64814e-005	
1096.19	5.67868e-005	
1096.68	5.65295e-005	
1097.17	5.93131e-005	
1097.66	5.63702e-005	
1098.14	5.75103e-005	
1098.63	5.62337e-005	
1099.12	5.61803e-005	
1099.61	5.62933e-005	
1100.1	5.6673e-005	
1100.59	5.63202e-005	
1101.07	5.65477e-005	
1101.56	5.61144e-005	
1102.05	5.65306e-005	
1102.54	5.63149e-005	
1103.03	5.61225e-005	
1103.52	5.60903e-005	
1104	5.70583e-005	
1104.49	5.59265e-005	
1104.98	5.65281e-005	
1105.47	5.61391e-005	
1105.96	5.62909e-005	
1106.45	5.59837e-005	
1106.93	5.60838e-005	
1107.42	5.59931e-005	
1107.91	5.45322e-005	
1108.4	5.60449e-005	
1108.89	5.42191e-005	
1109.38	5.62749e-005	
1109.86	5.5644e-005	
1110.35	5.60069e-005	
1110.84	5.62661e-005	
1111.33	5.59684e-005	
1111.82	5.53885e-005	
1112.3	5.58201e-005	
1112.79	5.59233e-005	
1113.28	5.59165e-005	
1113.77	5.61361e-005	
1114.26	5.56588e-005	
1114.75	5.54565e-005	
1115.23	5.6018e-005	
1115.72	5.53394e-005	
1116.21	5.55058e-005	
1116.7	5.55188e-005	
1117.19	5.55868e-005	
1117.68	5.64673e-005	
1118.16	5.57194e-005	
1118.65	5.55745e-005	
1119.14	5.62087e-005	
1119.63	5.63025e-005	
1120.12	5.55608e-005	
1120.61	5.6037e-005	
1121.09	5.55119e-005	
1121.58	5.54176e-005	
1122.07	5.54382e-005	
1122.56	5.58509e-005	
1123.05	5.55211e-005	
1123.54	5.54534e-005	
1124.02	5.54562e-005	
1124.51	5.51259e-005	
1125	5.54178e-005	
1125.49	5.60539e-005	
1125.98	5.56733e-005	
1126.46	5.46925e-005	
1126.95	5.53305e-005	
1127.44	5.52608e-005	
1127.93	5.53099e-005	
1128.42	5.52073e-005	
1128.91	5.52864e-005	
1129.39	5.58551e-005	
1129.88	5.51275e-005	
1130.37	5.51993e-005	
1130.86	5.52516e-005	
1131.35	5.54861e-005	
1131.84	5.50428e-005	
1132.32	5.51446e-005	
1132.81	5.48863e-005	
1133.3	5.54047e-005	
1133.79	5.50657e-005	
1134.28	5.38032e-005	
1134.77	5.49342e-005	
1135.25	5.51223e-005	
1135.74	5.5009e-005	
1136.23	5.47767e-005	
1136.72	5.48608e-005	
1137.21	5.50781e-005	
1137.7	5.48892e-005	
1138.18	5.47341e-005	
1138.67	5.50101e-005	
1139.16	5.44686e-005	
1139.65	5.4773e-005	
1140.14	5.57381e-005	
1140.63	5.52166e-005	
1141.11	5.4193e-005	
1141.6	5.49493e-005	
1142.09	5.50968e-005	
1142.58	5.48276e-005	
1143.07	5.41063e-005	
1143.55	5.46083e-005	
1144.04	5.44599e-005	
1144.53	5.46944e-005	
1145.02	5.46895e-005	
1145.51	5.48203e-005	
1146	5.41232e-005	
1146.48	5.46303e-005	
1146.97	5.45446e-005	
1147.46	5.4625e-005	
1147.95	5.49981e-005	
1148.44	5.45724e-005	
1148.93	5.4449e-005	
1149.41	5.45007e-005	
1149.9	5.34809e-005	
1150.39	5.44291e-005	
1150.88	5.40398e-005	
1151.37	5.38268e-005	
1151.86	5.50901e-005	
1152.34	5.44766e-005	
1152.83	5.4181e-005	
1153.32	5.44476e-005	
1153.81	5.44065e-005	
1154.3	5.43099e-005	
1154.79	5.4356e-005	
1155.27	5.43379e-005	
1155.76	5.45369e-005	
1156.25	5.42205e-005	
1156.74	5.4244e-005	
1157.23	5.43407e-005	
1157.71	5.47729e-005	
1158.2	5.42846e-005	
1158.69	5.42366e-005	
1159.18	5.40935e-005	
1159.67	5.42594e-005	
1160.16	5.43275e-005	
1160.64	5.42774e-005	
1161.13	5.4401e-005	
1161.62	5.37466e-005	
1162.11	5.45848e-005	
1162.6	5.44399e-005	
1163.09	5.40514e-005	
1163.57	5.3942e-005	
1164.06	5.38334e-005	
1164.55	5.49408e-005	
1165.04	5.41779e-005	
1165.53	5.41107e-005	
1166.02	5.38691e-005	
1166.5	5.51666e-005	
1166.99	5.41368e-005	
1167.48	5.36601e-005	
1167.97	5.40772e-005	
1168.46	5.37923e-005	
1168.95	5.38797e-005	
1169.43	5.41196e-005	
1169.92	5.3785e-005	
1170.41	5.34226e-005	
1170.9	5.38523e-005	
1171.39	5.42558e-005	
1171.88	5.3779e-005	
1172.36	5.45574e-005	
1172.85	5.37115e-005	
1173.34	5.34406e-005	
1173.83	5.37039e-005	
1174.32	5.41039e-005	
1174.8	5.37361e-005	
1175.29	5.33084e-005	
1175.78	5.36183e-005	
1176.27	5.4198e-005	
1176.76	5.36287e-005	
1177.25	5.30336e-005	
1177.73	5.35843e-005	
1178.22	5.36016e-005	
1178.71	5.36163e-005	
1179.2	5.26839e-005	
1179.69	5.34215e-005	
1180.18	5.2527e-005	
1180.66	5.34054e-005	
1181.15	5.4043e-005	
1181.64	5.3277e-005	
1182.13	5.35489e-005	
1182.62	5.33783e-005	
1183.11	5.37112e-005	
1183.59	5.37366e-005	
1184.08	5.50696e-005	
1184.57	5.3395e-005	
1185.06	5.31797e-005	
1185.55	5.33187e-005	
1186.04	5.33881e-005	
1186.52	5.35156e-005	
1187.01	5.35439e-005	
1187.5	5.32919e-005	
1187.99	5.24999e-005	
1188.48	5.34971e-005	
1188.96	5.39907e-005	
1189.45	5.3378e-005	
1189.94	5.37218e-005	
1190.43	5.32679e-005	
1190.92	5.31509e-005	
1191.41	5.3147e-005	
1191.89	5.27811e-005	
1192.38	5.32261e-005	
1192.87	5.39864e-005	
1193.36	5.33656e-005	
1193.85	5.26488e-005	
1194.34	5.31078e-005	
1194.82	5.292e-005	
1195.31	5.29673e-005	
1195.8	5.36143e-005	
1196.29	5.30431e-005	
1196.78	5.3151e-005	
1197.27	5.31863e-005	
1197.75	5.34336e-005	
1198.24	5.30015e-005	
1198.73	5.35139e-005	
1199.22	5.31887e-005	
1199.71	5.25646e-005	
1200.2	5.28667e-005	
1200.68	5.28563e-005	
1201.17	5.28047e-005	
1201.66	5.36054e-005	
1202.15	5.27978e-005	
1202.64	5.29485e-005	
1203.13	5.26969e-005	
1203.61	5.23968e-005	
1204.1	5.28942e-005	
1204.59	5.33219e-005	
1205.08	5.26603e-005	
1205.57	5.30136e-005	
1206.05	5.30548e-005	
1206.54	5.24285e-005	
1207.03	5.2757e-005	
1207.52	5.19747e-005	
1208.01	5.25764e-005	
1208.5	5.21963e-005	
1208.98	5.25998e-005	
1209.47	5.2725e-005	
1209.96	5.23415e-005	
1210.45	5.28635e-005	
1210.94	5.25255e-005	
1211.43	5.23385e-005	
1211.91	5.23549e-005	
1212.4	5.25121e-005	
1212.89	5.25511e-005	
1213.38	5.30882e-005	
1213.87	5.25264e-005	
1214.36	5.34937e-005	
1214.84	5.25527e-005	
1215.33	5.28393e-005	
1215.82	5.2714e-005	
1216.31	5.24189e-005	
1216.8	5.20791e-005	
1217.29	5.25241e-005	
1217.77	5.24372e-005	
1218.26	5.18978e-005	
1218.75	5.25879e-005	
1219.24	5.20319e-005	
1219.73	5.22577e-005	
1220.21	5.2043e-005	
1220.7	5.2319e-005	
1221.19	5.19996e-005	
1221.68	5.24838e-005	
1222.17	5.20618e-005	
1222.66	5.21533e-005	
1223.14	5.16192e-005	
1223.63	5.20479e-005	
1224.12	5.24423e-005	
1224.61	5.22738e-005	
1225.1	5.20986e-005	
1225.59	5.19695e-005	
1226.07	5.1807e-005	
1226.56	5.19942e-005	
1227.05	5.16213e-005	
1227.54	5.21411e-005	
1228.03	5.20122e-005	
1228.52	5.19534e-005	
1229	5.21914e-005	
1229.49	5.19255e-005	
1229.98	5.16521e-005	
1230.47	5.20089e-005	
1230.96	5.17765e-005	
1231.45	5.17158e-005	
1231.93	5.144e-005	
1232.42	5.20201e-005	
1232.91	5.21867e-005	
1233.4	5.1988e-005	
1233.89	5.23023e-005	
1234.38	5.19539e-005	
1234.86	5.19522e-005	
1235.35	5.18782e-005	
1235.84	5.16041e-005	
1236.33	5.19685e-005	
1236.82	5.11049e-005	
1237.3	5.17363e-005	
1237.79	5.21004e-005	
1238.28	5.1751e-005	
1238.77	5.13438e-005	
1239.26	5.16875e-005	
1239.75	5.22919e-005	
1240.23	5.17819e-005	
1240.72	5.10041e-005	
1241.21	5.15996e-005	
1241.7	5.14092e-005	
1242.19	5.17595e-005	
1242.68	5.25747e-005	
1243.16	5.17194e-005	
1243.65	5.20866e-005	
1244.14	5.15394e-005	
1244.63	5.14614e-005	
1245.12	5.181e-005	
1245.61	5.19293e-005	
1246.09	5.17012e-005	
1246.58	5.10798e-005	
1247.07	5.13604e-005	
1247.56	5.25994e-005	
1248.05	5.15937e-005	
1248.54	5.21387e-005	
1249.02	5.15715e-005	
1249.51	5.18509e-005	
1250	5.15036e-005	
1250.49	5.14243e-005	
1250.98	5.12275e-005	
1251.46	5.12503e-005	
1251.95	5.14056e-005	
1252.44	5.11035e-005	
1252.93	5.13487e-005	
1253.42	5.16917e-005	
1253.91	5.13845e-005	
1254.39	5.07492e-005	
1254.88	5.11966e-005	
1255.37	5.04892e-005	
1255.86	5.1558e-005	
1256.35	5.08293e-005	
1256.84	5.12357e-005	
1257.32	5.08834e-005	
1257.81	5.12423e-005	
1258.3	5.10297e-005	
1258.79	5.13333e-005	
1259.28	5.00154e-005	
1259.77	5.11437e-005	
1260.25	5.06377e-005	
1260.74	5.09996e-005	
1261.23	5.18458e-005	
1261.72	5.12997e-005	
1262.21	5.14943e-005	
1262.7	5.09595e-005	
1263.18	5.08976e-005	
1263.67	5.12511e-005	
1264.16	5.09444e-005	
1264.65	5.10557e-005	
1265.14	5.13481e-005	
1265.63	5.11905e-005	
1266.11	5.10772e-005	
1266.6	5.094e-005	
1267.09	5.11065e-005	
1267.58	5.12616e-005	
1268.07	5.12688e-005	
1268.55	5.09356e-005	
1269.04	4.99212e-005	
1269.53	5.11576e-005	
1270.02	5.21188e-005	
1270.51	5.09237e-005	
1271	5.11631e-005	
1271.48	5.09986e-005	
1271.97	5.06655e-005	
1272.46	5.07752e-005	
1272.95	5.06167e-005	
1273.44	5.11678e-005	
1273.93	5.09153e-005	
1274.41	5.0749e-005	
1274.9	5.11e-005	
1275.39	5.05426e-005	
1275.88	5.07689e-005	
1276.37	5.07213e-005	
1276.86	5.04446e-005	
1277.34	5.06402e-005	
1277.83	5.14682e-005	
1278.32	5.0616e-005	
1278.81	5.09573e-005	
1279.3	5.07199e-005	
1279.79	5.14789e-005	
1280.27	5.05738e-005	
1280.76	5.0423e-005	
1281.25	5.07408e-005	
1281.74	5.09611e-005	
1282.23	5.04114e-005	
1282.71	5.06532e-005	
1283.2	5.04875e-005	
1283.69	5.00528e-005	
1284.18	5.07557e-005	
1284.67	5.01494e-005	
1285.16	5.05762e-005	
1285.64	5.08235e-005	
1286.13	5.04561e-005	
1286.62	5.03584e-005	
1287.11	5.04913e-005	
1287.6	5.07993e-005	
1288.09	5.05037e-005	
1288.57	5.02876e-005	
1289.06	5.05464e-005	
1289.55	5.03182e-005	
1290.04	5.04705e-005	
1290.53	4.98647e-005	
1291.02	5.05219e-005	
1291.5	4.99448e-005	
1291.99	5.0341e-005	
1292.48	5.05043e-005	
1292.97	5.04915e-005	
1293.46	5.016e-005	
1293.95	5.02706e-005	
1294.43	5.01808e-005	
1294.92	5.03642e-005	
1295.41	5.06934e-005	
1295.9	5.01318e-005	
1296.39	4.97565e-005	
1296.88	5.03411e-005	
1297.36	5.07424e-005	
1297.85	5.02608e-005	
1298.34	5.02438e-005	
1298.83	5.01848e-005	
1299.32	4.98992e-005	
1299.8	5.02423e-005	
1300.29	4.95953e-005	
1300.78	5.00093e-005	
1301.27	4.98609e-005	
1301.76	5.01474e-005	
1302.25	5.0832e-005	
1302.73	5.03226e-005	
1303.22	5.0251e-005	
1303.71	4.9993e-005	
1304.2	4.98734e-005	
1304.69	5.00963e-005	
1305.18	5.07921e-005	
1305.66	5.00321e-005	
1306.15	5.01824e-005	
1306.64	5.00418e-005	
1307.13	5.03771e-005	
1307.62	4.99012e-005	
1308.11	5.02806e-005	
1308.59	4.99742e-005	
1309.08	5.02171e-005	
1309.57	5.01207e-005	
1310.06	4.99187e-005	
1310.55	4.97904e-005	
1311.04	5.02377e-005	
1311.52	4.9971e-005	
1312.01	4.96898e-005	
1312.5	5.00393e-005	
1312.99	4.92118e-005	
1313.48	4.985e-005	
1313.96	4.94534e-005	
1314.45	4.9871e-005	
1314.94	4.90217e-005	
1315.43	4.98099e-005	
1315.92	4.99381e-005	
1316.41	4.97379e-005	
1316.89	4.99185e-005	
1317.38	4.98142e-005	
1317.87	5.01399e-005	
1318.36	4.99135e-005	
1318.85	4.9865e-005	
1319.34	4.96369e-005	
1319.82	4.96282e-005	
1320.31	4.96319e-005	
1320.8	4.9782e-005	
1321.29	4.96707e-005	
1321.78	4.96647e-005	
1322.27	4.9539e-005	
1322.75	4.91508e-005	
1323.24	4.98638e-005	
1323.73	4.98828e-005	
1324.22	4.97043e-005	
1324.71	4.97553e-005	
1325.2	4.96233e-005	
1325.68	5.00524e-005	
1326.17	4.94966e-005	
1326.66	4.99128e-005	
1327.15	4.95488e-005	
1327.64	5.04192e-005	
1328.13	4.93747e-005	
1328.61	4.9211e-005	
1329.1	4.95126e-005	
1329.59	4.95059e-005	
1330.08	4.93942e-005	
1330.57	4.95744e-005	
1331.05	4.94993e-005	
1331.54	4.90801e-005	
1332.03	4.93374e-005	
1332.52	4.95099e-005	
1333.01	4.9592e-005	
1333.5	4.88759e-005	
1333.98	4.94356e-005	
1334.47	4.86782e-005	
1334.96	4.9351e-005	
1335.45	4.95244e-005	
1335.94	4.92777e-005	
1336.43	4.93829e-005	
1336.91	4.94381e-005	
1337.4	4.93803e-005	
1337.89	4.93526e-005	
1338.38	4.90871e-005	
1338.87	4.94029e-005	
1339.36	5.01153e-005	
1339.84	4.93091e-005	
1340.33	4.95803e-005	
1340.82	4.92778e-005	
1341.31	4.8809e-005	
1341.8	4.91844e-005	
1342.29	4.90743e-005	
1342.77	4.90921e-005	
1343.26	4.87575e-005	
1343.75	4.93036e-005	
1344.24	4.93272e-005	
1344.73	4.92452e-005	
1345.21	4.91397e-005	
1345.7	4.91992e-005	
1346.19	4.93754e-005	
1346.68	4.92395e-005	
1347.17	4.91102e-005	
1347.66	4.92049e-005	
1348.14	4.87891e-005	
1348.63	4.90043e-005	
1349.12	4.82312e-005	
1349.61	4.90961e-005	
1350.1	4.85636e-005	
1350.59	4.90616e-005	
1351.07	4.89376e-005	
1351.56	4.90174e-005	
1352.05	4.87085e-005	
1352.54	4.90612e-005	
1353.03	4.91407e-005	
1353.52	4.89427e-005	
1354	4.94276e-005	
1354.49	4.89532e-005	
1354.98	4.86378e-005	
1355.47	4.887e-005	
1355.96	4.93373e-005	
1356.45	4.88102e-005	
1356.93	4.95112e-005	
1357.42	4.88336e-005	
1357.91	4.87244e-005	
1358.4	4.88458e-005	
1358.89	4.85274e-005	
1359.38	4.87409e-005	
1359.86	4.90506e-005	
1360.35	4.87518e-005	
1360.84	4.85105e-005	
1361.33	4.89563e-005	
1361.82	4.93744e-005	
1362.3	4.89297e-005	
1362.79	4.91094e-005	
1363.28	4.86876e-005	
1363.77	4.89857e-005	
1364.26	4.89085e-005	
1364.75	4.89608e-005	
1365.23	4.87722e-005	
1365.72	4.85274e-005	
1366.21	4.86721e-005	
1366.7	4.85289e-005	
1367.19	4.8645e-005	
1367.68	4.79867e-005	
1368.16	4.86691e-005	
1368.65	4.88295e-005	
1369.14	4.86952e-005	
1369.63	4.86088e-005	
1370.12	4.87847e-005	
1370.61	4.88126e-005	
1371.09	4.87971e-005	
1371.58	4.84591e-005	
1372.07	4.8518e-005	
1372.56	4.84563e-005	
1373.05	4.86288e-005	
1373.54	4.81365e-005	
1374.02	4.85487e-005	
1374.51	4.80955e-005	
1375	4.87779e-005	
1375.49	4.87022e-005	
1375.98	4.86113e-005	
1376.46	4.85828e-005	
1376.95	4.84799e-005	
1377.44	4.87245e-005	
1377.93	4.84708e-005	
1378.42	4.85061e-005	
1378.91	4.8431e-005	
1379.39	4.85615e-005	
1379.88	4.84782e-005	
1380.37	4.88871e-005	
1380.86	4.83809e-005	
1381.35	4.81101e-005	
1381.84	4.84932e-005	
1382.32	4.88444e-005	
1382.81	4.83482e-005	
1383.3	4.85365e-005	
1383.79	4.84123e-005	
1384.28	4.84537e-005	
1384.77	4.83735e-005	
1385.25	4.84429e-005	
1385.74	4.83852e-005	
1386.23	4.81202e-005	
1386.72	4.83349e-005	
1387.21	4.7962e-005	
1387.7	4.83138e-005	
1388.18	4.77869e-005	
1388.67	4.80643e-005	
1389.16	4.84604e-005	
1389.65	4.82678e-005	
1390.14	4.85408e-005	
1390.63	4.82152e-005	
1391.11	4.79967e-005	
1391.6	4.80552e-005	
1392.09	4.81247e-005	
1392.58	4.8018e-005	
1393.07	4.8159e-005	
1393.55	4.84259e-005	
1394.04	4.82186e-005	
1394.53	4.81313e-005	
1395.02	4.76374e-005	
1395.51	4.80407e-005	
1396	4.82011e-005	
1396.48	4.81865e-005	
1396.97	4.79037e-005	
1397.46	4.81067e-005	
1397.95	4.90733e-005	
1398.44	4.82123e-005	
1398.93	4.85019e-005	
1399.41	4.7898e-005	
1399.9	4.79807e-005	
1400.39	4.81587e-005	
1400.88	4.826e-005	
1401.37	4.799e-005	
1401.86	4.82184e-005	
1402.34	4.82204e-005	
1402.83	4.77746e-005	
1403.32	4.81899e-005	
1403.81	4.73261e-005	
1404.3	4.78862e-005	
1404.79	4.76157e-005	
1405.27	4.79269e-005	
1405.76	4.77061e-005	
1406.25	4.78319e-005	
1406.74	4.81867e-005	
1407.23	4.79683e-005	
1407.71	4.72272e-005	
1408.2	4.79614e-005	
1408.69	4.82551e-005	
1409.18	4.80305e-005	
1409.67	4.72242e-005	
1410.16	4.77206e-005	
1410.64	4.77346e-005	
1411.13	4.79495e-005	
1411.62	4.7244e-005	
1412.11	4.78373e-005	
1412.6	4.80004e-005	
1413.09	4.77859e-005	
1413.57	4.8513e-005	
1414.06	4.76538e-005	
1414.55	4.81436e-005	
1415.04	4.78964e-005	
1415.53	4.78956e-005	
1416.02	4.78323e-005	
1416.5	4.76328e-005	
1416.99	4.76754e-005	
1417.48	4.75636e-005	
1417.97	4.7732e-005	
1418.46	4.74505e-005	
1418.95	4.77114e-005	
1419.43	4.84554e-005	
1419.92	4.76886e-005	
1420.41	4.74623e-005	
1420.9	4.77801e-005	
1421.39	4.78796e-005	
1421.88	4.77306e-005	
1422.36	4.77841e-005	
1422.85	4.76094e-005	
1423.34	4.78899e-005	
1423.83	4.75334e-005	
1424.32	4.7087e-005	
1424.8	4.7649e-005	
1425.29	4.79199e-005	
1425.78	4.7425e-005	
1426.27	4.73479e-005	
1426.76	4.73828e-005	
1427.25	4.78459e-005	
1427.73	4.75458e-005	
1428.22	4.69969e-005	
1428.71	4.74666e-005	
1429.2	4.77242e-005	
1429.69	4.74831e-005	
1430.18	4.77668e-005	
1430.66	4.75149e-005	
1431.15	4.7325e-005	
1431.64	4.74571e-005	
1432.13	4.75661e-005	
1432.62	4.74715e-005	
1433.11	4.71382e-005	
1433.59	4.73448e-005	
1434.08	4.70806e-005	
1434.57	4.73533e-005	
1435.06	4.7825e-005	
1435.55	4.74224e-005	
1436.04	4.69575e-005	
1436.52	4.74225e-005	
1437.01	4.7036e-005	
1437.5	4.72999e-005	
1437.99	4.79247e-005	
1438.48	4.73775e-005	
1438.96	4.75725e-005	
1439.45	4.72453e-005	
1439.94	4.73153e-005	
1440.43	4.73958e-005	
1440.92	4.6691e-005	
1441.41	4.71877e-005	
1441.89	4.69688e-005	
1442.38	4.72813e-005	
1442.87	4.82667e-005	
1443.36	4.72731e-005	
1443.85	4.71483e-005	
1444.34	4.72792e-005	
1444.82	4.67368e-005	
1445.31	4.72907e-005	
1445.8	4.76561e-005	
1446.29	4.73407e-005	
1446.78	4.73257e-005	
1447.27	4.71433e-005	
1447.75	4.75803e-005	
1448.24	4.70574e-005	
1448.73	4.62024e-005	
1449.22	4.71614e-005	
1449.71	4.70075e-005	
1450.2	4.69569e-005	
1450.68	4.72437e-005	
1451.17	4.70469e-005	
1451.66	4.69127e-005	
1452.15	4.71555e-005	
1452.64	4.72698e-005	
1453.13	4.69524e-005	
1453.61	4.66675e-005	
1454.1	4.68957e-005	
1454.59	4.74399e-005	
1455.08	4.70355e-005	
1455.57	4.71824e-005	
1456.05	4.69958e-005	
1456.54	4.73113e-005	
1457.03	4.70057e-005	
1457.52	4.75948e-005	
1458.01	4.72325e-005	
1458.5	4.68065e-005	
1458.98	4.70582e-005	
1459.47	4.72521e-005	
1459.96	4.70004e-005	
1460.45	4.70893e-005	
1460.94	4.70091e-005	
1461.43	4.70069e-005	
1461.91	4.68106e-005	
1462.4	4.65694e-005	
1462.89	4.6992e-005	
1463.38	4.70779e-005	
1463.87	4.67907e-005	
1464.36	4.74204e-005	
1464.84	4.67709e-005	
1465.33	4.6927e-005	
1465.82	4.69041e-005	
1466.31	4.73058e-005	
1466.8	4.67793e-005	
1467.29	4.71511e-005	
1467.77	4.67291e-005	
1468.26	4.69927e-005	
1468.75	4.66452e-005	
1469.24	4.6211e-005	
1469.73	4.68294e-005	
1470.21	4.7204e-005	
1470.7	4.68382e-005	
1471.19	4.65457e-005	
1471.68	4.69558e-005	
1472.17	4.68247e-005	
1472.66	4.66551e-005	
1473.14	4.66145e-005	
1473.63	4.674e-005	
1474.12	4.66217e-005	
1474.61	4.68527e-005	
1475.1	4.62254e-005	
1475.59	4.68354e-005	
1476.07	4.70654e-005	
1476.56	4.6653e-005	
1477.05	4.66739e-005	
1477.54	4.6625e-005	
1478.03	4.6661e-005	
1478.52	4.67872e-005	
1479	4.62925e-005	
1479.49	4.65495e-005	
1479.98	4.6972e-005	
1480.47	4.67229e-005	
1480.96	4.65314e-005	
1481.45	4.67199e-005	
1481.93	4.68894e-005	
1482.42	4.66004e-005	
1482.91	4.68584e-005	
1483.4	4.65682e-005	
1483.89	4.66316e-005	
1484.38	4.68495e-005	
1484.86	4.64265e-005	
1485.35	4.64359e-005	
1485.84	4.73054e-005	
1486.33	4.63925e-005	
1486.82	4.69518e-005	
1487.3	4.63932e-005	
1487.79	4.66322e-005	
1488.28	4.65722e-005	
1488.77	4.63457e-005	
1489.26	4.65764e-005	
1489.75	4.73482e-005	
1490.23	4.6721e-005	
1490.72	4.67432e-005	
1491.21	4.63917e-005	
1491.7	4.68615e-005	
1492.19	4.65176e-005	
1492.68	4.66453e-005	
1493.16	4.63947e-005	
1493.65	4.60316e-005	
1494.14	4.64413e-005	
1494.63	4.653e-005	
1495.12	4.6417e-005	
1495.61	4.62194e-005	
1496.09	4.63056e-005	
1496.58	4.66073e-005	
1497.07	4.63561e-005	
1497.56	4.67383e-005	
1498.05	4.6272e-005	
1498.54	4.58884e-005	
1499.02	4.6417e-005	
1499.51	4.57837e-005	
1500	4.62106e-005	
1500.49	4.64819e-005	
1500.98	4.636e-005	
1501.46	4.64073e-005	
1501.95	4.63467e-005	
1502.44	4.62118e-005	
1502.93	4.61769e-005	
1503.42	4.68096e-005	
1503.91	4.61854e-005	
1504.39	4.56557e-005	
1504.88	4.6151e-005	
1505.37	4.63995e-005	
1505.86	4.61745e-005	
1506.35	4.56369e-005	
1506.84	4.623e-005	
1507.32	4.64402e-005	
1507.81	4.6297e-005	
1508.3	4.61337e-005	
1508.79	4.62686e-005	
1509.28	4.63994e-005	
1509.77	4.60352e-005	
1510.25	4.62005e-005	
1510.74	4.60897e-005	
1511.23	4.53779e-005	
1511.72	4.61882e-005	
1512.21	4.60104e-005	
1512.7	4.61042e-005	
1513.18	4.55019e-005	
1513.67	4.61418e-005	
1514.16	4.67491e-005	
1514.65	4.61581e-005	
1515.14	4.60001e-005	
1515.63	4.59844e-005	
1516.11	4.62336e-005	
1516.6	4.60053e-005	
1517.09	4.58158e-005	
1517.58	4.60565e-005	
1518.07	4.65932e-005	
1518.55	4.59873e-005	
1519.04	4.56257e-005	
1519.53	4.60328e-005	
1520.02	4.55755e-005	
1520.51	4.61194e-005	
1521	4.54023e-005	
1521.48	4.58918e-005	
1521.97	4.62342e-005	
1522.46	4.57875e-005	
1522.95	4.62981e-005	
1523.44	4.61222e-005	
1523.93	4.57789e-005	
1524.41	4.58725e-005	
1524.9	4.54468e-005	
1525.39	4.57843e-005	
1525.88	4.58752e-005	
1526.37	4.59574e-005	
1526.86	4.58952e-005	
1527.34	4.60197e-005	
1527.83	4.5311e-005	
1528.32	4.59245e-005	
1528.81	4.59196e-005	
1529.3	4.58146e-005	
1529.79	4.56562e-005	
1530.27	4.59064e-005	
1530.76	4.5849e-005	
1531.25	4.58276e-005	
1531.74	4.64593e-005	
1532.23	4.57014e-005	
1532.71	4.6226e-005	
1533.2	4.59742e-005	
1533.69	4.55668e-005	
1534.18	4.59135e-005	
1534.67	4.60578e-005	
1535.16	4.59989e-005	
1535.64	4.57012e-005	
1536.13	4.56714e-005	
1536.62	4.56886e-005	
1537.11	4.58957e-005	
1537.6	4.5984e-005	
1538.09	4.57142e-005	
1538.57	4.60851e-005	
1539.06	4.5751e-005	
1539.55	4.59042e-005	
1540.04	4.58767e-005	
1540.53	4.59154e-005	
1541.02	4.57477e-005	
1541.5	4.51809e-005	
1541.99	4.56354e-005	
1542.48	4.53752e-005	
1542.97	4.56187e-005	
1543.46	4.53312e-005	
1543.95	4.57005e-005	
1544.43	4.58654e-005	
1544.92	4.57531e-005	
1545.41	4.63976e-005	
1545.9	4.58228e-005	
1546.39	4.53669e-005	
1546.88	4.56399e-005	
1547.36	4.60825e-005	
1547.85	4.54565e-005	
1548.34	4.55721e-005	
1548.83	4.56572e-005	
1549.32	4.55341e-005	
1549.8	4.56538e-005	
1550.29	4.55676e-005	
1550.78	4.56726e-005	
1551.27	4.56578e-005	
1551.76	4.56128e-005	
1552.25	4.57568e-005	
1552.73	4.55677e-005	
1553.22	4.50736e-005	
1553.71	4.56411e-005	
1554.2	4.53429e-005	
1554.69	4.55874e-005	
1555.18	4.53933e-005	
1555.66	4.5605e-005	
1556.15	4.57061e-005	
1556.64	4.56017e-005	
1557.13	4.53377e-005	
1557.62	4.56843e-005	
1558.11	4.53469e-005	
1558.59	4.54342e-005	
1559.08	4.5539e-005	
1559.57	4.55039e-005	
1560.06	4.62727e-005	
1560.55	4.55273e-005	
1561.04	4.54769e-005	
1561.52	4.55158e-005	
1562.01	4.48158e-005	
1562.5	4.53852e-005	
1562.99	4.51413e-005	
1563.48	4.53902e-005	
1563.96	4.54172e-005	
1564.45	4.55673e-005	
1564.94	4.53052e-005	
1565.43	4.55711e-005	
1565.92	4.52281e-005	
1566.41	4.53511e-005	
1566.89	4.53543e-005	
1567.38	4.54196e-005	
1567.87	4.53719e-005	
1568.36	4.55168e-005	
1568.85	4.54062e-005	
1569.34	4.5544e-005	
1569.82	4.5543e-005	
1570.31	4.52775e-005	
1570.8	4.4612e-005	
1571.29	4.53812e-005	
1571.78	4.568e-005	
1572.27	4.5469e-005	
1572.75	4.56829e-005	
1573.24	4.53636e-005	
1573.73	4.54829e-005	
1574.22	4.54167e-005	
1574.71	4.45486e-005	
1575.2	4.50887e-005	
1575.68	4.58931e-005	
1576.17	4.53548e-005	
1576.66	4.51153e-005	
1577.15	4.5406e-005	
1577.64	4.51025e-005	
1578.13	4.5321e-005	
1578.61	4.45909e-005	
1579.1	4.51009e-005	
1579.59	4.5398e-005	
1580.08	4.51859e-005	
1580.57	4.51556e-005	
1581.05	4.5178e-005	
1581.54	4.49293e-005	
1582.03	4.51304e-005	
1582.52	4.56478e-005	
1583.01	4.53947e-005	
1583.5	4.55177e-005	
1583.98	4.51496e-005	
1584.47	4.54123e-005	
1584.96	4.52908e-005	
1585.45	4.46012e-005	
1585.94	4.51242e-005	
1586.43	4.49375e-005	
1586.91	4.51749e-005	
1587.4	4.57385e-005	
1587.89	4.51872e-005	
1588.38	4.62769e-005	
1588.87	4.51524e-005	
1589.36	4.4997e-005	
1589.84	4.51442e-005	
1590.33	4.4876e-005	
1590.82	4.5226e-005	
1591.31	4.51195e-005	
1591.8	4.494e-005	
1592.29	4.47619e-005	
1592.77	4.51532e-005	
1593.26	4.56743e-005	
1593.75	4.50768e-005	
1594.24	4.51746e-005	
1594.73	4.49927e-005	
1595.21	4.55875e-005	
1595.7	4.50897e-005	
1596.19	4.4425e-005	
1596.68	4.50242e-005	
1597.17	4.51611e-005	
1597.66	4.50451e-005	
1598.14	4.48684e-005	
1598.63	4.50597e-005	
1599.12	4.4142e-005	
1599.61	4.50018e-005	
1600.1	4.55949e-005	
1600.59	4.49678e-005	
1601.07	4.54608e-005	
1601.56	4.50801e-005	
1602.05	4.49435e-005	
1602.54	4.50031e-005	
1603.03	4.51497e-005	
1603.52	4.47661e-005	
1604	4.46649e-005	
1604.49	4.51182e-005	
1604.98	4.51116e-005	
1605.47	4.49487e-005	
1605.96	4.452e-005	
1606.45	4.50449e-005	
1606.93	4.47947e-005	
1607.42	4.4831e-005	
1607.91	4.44193e-005	
1608.4	4.48071e-005	
1608.89	4.49734e-005	
1609.38	4.46825e-005	
1609.86	4.49214e-005	
1610.35	4.49119e-005	
1610.84	4.51398e-005	
1611.33	4.49148e-005	
1611.82	4.50146e-005	
1612.3	4.49373e-005	
1612.79	4.46987e-005	
1613.28	4.4642e-005	
1613.77	4.52777e-005	
1614.26	4.48426e-005	
1614.75	4.47932e-005	
1615.23	4.47643e-005	
1615.72	4.45465e-005	
1616.21	4.48338e-005	
1616.7	4.4686e-005	
1617.19	4.47552e-005	
1617.68	4.51094e-005	
1618.16	4.47192e-005	
1618.65	4.5094e-005	
1619.14	4.49553e-005	
1619.63	4.50103e-005	
1620.12	4.4883e-005	
1620.61	4.52448e-005	
1621.09	4.48868e-005	
1621.58	4.48112e-005	
1622.07	4.48284e-005	
1622.56	4.44941e-005	
1623.05	4.48655e-005	
1623.54	4.4454e-005	
1624.02	4.47189e-005	
1624.51	4.47123e-005	
1625	4.4643e-005	
1625.49	4.47352e-005	
1625.98	4.47918e-005	
1626.46	4.45664e-005	
1626.95	4.47473e-005	
1627.44	4.47881e-005	
1627.93	4.45888e-005	
1628.42	4.49809e-005	
1628.91	4.48213e-005	
1629.39	4.51219e-005	
1629.88	4.46224e-005	
1630.37	4.42563e-005	
1630.86	4.46846e-005	
1631.35	4.45496e-005	
1631.84	4.48417e-005	
1632.32	4.45772e-005	
1632.81	4.44146e-005	
1633.3	4.48866e-005	
1633.79	4.44428e-005	
1634.28	4.37929e-005	
1634.77	4.48235e-005	
1635.25	4.40407e-005	
1635.74	4.4417e-005	
1636.23	4.45723e-005	
1636.72	4.44018e-005	
1637.21	4.39822e-005	
1637.7	4.44175e-005	
1638.18	4.43838e-005	
1638.67	4.45552e-005	
1639.16	4.43704e-005	
1639.65	4.45384e-005	
1640.14	4.44128e-005	
1640.63	4.46688e-005	
1641.11	4.49343e-005	
1641.6	4.44332e-005	
1642.09	4.45748e-005	
1642.58	4.47294e-005	
1643.07	4.41328e-005	
1643.55	4.44228e-005	
1644.04	4.43426e-005	
1644.53	4.43756e-005	
1645.02	4.45948e-005	
1645.51	4.44062e-005	
1646	4.46756e-005	
1646.48	4.447e-005	
1646.97	4.38572e-005	
1647.46	4.46092e-005	
1647.95	4.47261e-005	
1648.44	4.44721e-005	
1648.93	4.42985e-005	
1649.41	4.45981e-005	
1649.9	4.40447e-005	
1650.39	4.43181e-005	
1650.88	4.44727e-005	
1651.37	4.4329e-005	
1651.86	4.49654e-005	
1652.34	4.44653e-005	
1652.83	4.49055e-005	
1653.32	4.44837e-005	
1653.81	4.43847e-005	
1654.3	4.44734e-005	
1654.79	4.42187e-005	
1655.27	4.43329e-005	
1655.76	4.45129e-005	
1656.25	4.43725e-005	
1656.74	4.4442e-005	
1657.23	4.4305e-005	
1657.71	4.36652e-005	
1658.2	4.4361e-005	
1658.69	4.4737e-005	
1659.18	4.4503e-005	
1659.67	4.41077e-005	
1660.16	4.42586e-005	
1660.64	4.42997e-005	
1661.13	4.44965e-005	
1661.62	4.38708e-005	
1662.11	4.42869e-005	
1662.6	4.4639e-005	
1663.09	4.42806e-005	
1663.57	4.43502e-005	
1664.06	4.42589e-005	
1664.55	4.44958e-005	
1665.04	4.43717e-005	
1665.53	4.46343e-005	
1666.02	4.44183e-005	
1666.5	4.44679e-005	
1666.99	4.43711e-005	
1667.48	4.41719e-005	
1667.97	4.4252e-005	
1668.46	4.40091e-005	
1668.95	4.41835e-005	
1669.43	4.36128e-005	
1669.92	4.43593e-005	
1670.41	4.40845e-005	
1670.9	4.41851e-005	
1671.39	4.44518e-005	
1671.88	4.42019e-005	
1672.36	4.42978e-005	
1672.85	4.43563e-005	
1673.34	4.4365e-005	
1673.83	4.42719e-005	
1674.32	4.41222e-005	
1674.8	4.4375e-005	
1675.29	4.43394e-005	
1675.78	4.41845e-005	
1676.27	4.44162e-005	
1676.76	4.40678e-005	
1677.25	4.38465e-005	
1677.73	4.40446e-005	
1678.22	4.44309e-005	
1678.71	4.43165e-005	
1679.2	4.4156e-005	
1679.69	4.42377e-005	
1680.18	4.38084e-005	
1680.66	4.43161e-005	
1681.15	4.42678e-005	
1681.64	4.41474e-005	
1682.13	4.45291e-005	
1682.62	4.40979e-005	
1683.11	4.38536e-005	
1683.59	4.40302e-005	
1684.08	4.44615e-005	
1684.57	4.40626e-005	
1685.06	4.36241e-005	
1685.55	4.41894e-005	
1686.04	4.40954e-005	
1686.52	4.42202e-005	
1687.01	4.44774e-005	
1687.5	4.41489e-005	
1687.99	4.49422e-005	
1688.48	4.4204e-005	
1688.96	4.3912e-005	
1689.45	4.41341e-005	
1689.94	4.4141e-005	
1690.43	4.40585e-005	
1690.92	4.46947e-005	
1691.41	4.40783e-005	
1691.89	4.42671e-005	
1692.38	4.41685e-005	
1692.87	4.44082e-005	
1693.36	4.42835e-005	
1693.85	4.44099e-005	
1694.34	4.40607e-005	
1694.82	4.38478e-005	
1695.31	4.40117e-005	
1695.8	4.39649e-005	
1696.29	4.41329e-005	
1696.78	4.41303e-005	
1697.27	4.40604e-005	
1697.75	4.35862e-005	
1698.24	4.39451e-005	
1698.73	4.48497e-005	
1699.22	4.4131e-005	
1699.71	4.38508e-005	
1700.2	4.39649e-005	
1700.68	4.40262e-005	
1701.17	4.40848e-005	
1701.66	4.39191e-005	
1702.15	4.39815e-005	
1702.64	4.53038e-005	
1703.13	4.39369e-005	
1703.61	4.40032e-005	
1704.1	4.39225e-005	
1704.59	4.38341e-005	
1705.08	4.38855e-005	
1705.57	4.42559e-005	
1706.05	4.39728e-005	
1706.54	4.3319e-005	
1707.03	4.40753e-005	
1707.52	4.40207e-005	
1708.01	4.39497e-005	
1708.5	4.38559e-005	
1708.98	4.41151e-005	
1709.47	4.40028e-005	
1709.96	4.39263e-005	
1710.45	4.36658e-005	
1710.94	4.38476e-005	
1711.43	4.40118e-005	
1711.91	4.38819e-005	
1712.4	4.31179e-005	
1712.89	4.38917e-005	
1713.38	4.38301e-005	
1713.87	4.39195e-005	
1714.36	4.3806e-005	
1714.84	4.39011e-005	
1715.33	4.43416e-005	
1715.82	4.37716e-005	
1716.31	4.32825e-005	
1716.8	4.38882e-005	
1717.29	4.39386e-005	
1717.77	4.38113e-005	
1718.26	4.42183e-005	
1718.75	4.38787e-005	
1719.24	4.38924e-005	
1719.73	4.37923e-005	
1720.21	4.43154e-005	
1720.7	4.38171e-005	
1721.19	4.3718e-005	
1721.68	4.37124e-005	
1722.17	4.31779e-005	
1722.66	4.39326e-005	
1723.14	4.36178e-005	
1723.63	4.38043e-005	
1724.12	4.38728e-005	
1724.61	4.37694e-005	
1725.1	4.39328e-005	
1725.59	4.3686e-005	
1726.07	4.37461e-005	
1726.56	4.3654e-005	
1727.05	4.41948e-005	
1727.54	4.38123e-005	
1728.03	4.39387e-005	
1728.52	4.38848e-005	
1729	4.32913e-005	
1729.49	4.38888e-005	
1729.98	4.38696e-005	
1730.47	4.38349e-005	
1730.96	4.4466e-005	
1731.45	4.388e-005	
1731.93	4.3881e-005	
1732.42	4.37315e-005	
1732.91	4.32477e-005	
1733.4	4.38073e-005	
1733.89	4.42376e-005	
1734.38	4.36556e-005	
1734.86	4.34153e-005	
1735.35	4.36366e-005	
1735.84	4.34385e-005	
1736.33	4.36943e-005	
1736.82	4.38206e-005	
1737.3	4.37003e-005	
1737.79	4.4158e-005	
1738.28	4.38099e-005	
1738.77	4.34276e-005	
1739.26	4.37635e-005	
1739.75	4.38824e-005	
1740.23	4.37634e-005	
1740.72	4.35517e-005	
1741.21	4.38612e-005	
1741.7	4.37297e-005	
1742.19	4.36698e-005	
1742.68	4.42074e-005	
1743.16	4.36574e-005	
1743.65	4.36339e-005	
1744.14	4.36054e-005	
1744.63	4.35269e-005	
1745.12	4.37735e-005	
1745.61	4.35726e-005	
1746.09	4.36692e-005	
1746.58	4.39327e-005	
1747.07	4.37316e-005	
1747.56	4.46195e-005	
1748.05	4.36042e-005	
1748.54	4.3119e-005	
1749.02	4.36092e-005	
1749.51	4.31074e-005	
1750	4.35506e-005	
1750.49	4.34322e-005	
1750.98	4.38894e-005	
1751.46	4.37201e-005	
1751.95	4.3602e-005	
1752.44	4.3829e-005	
1752.93	4.35475e-005	
1753.42	4.46822e-005	
1753.91	4.3579e-005	
1754.39	4.37652e-005	
1754.88	4.35474e-005	
1755.37	4.35228e-005	
1755.86	4.35056e-005	
1756.35	4.33479e-005	
1756.84	4.37589e-005	
1757.32	4.32894e-005	
1757.81	4.36446e-005	
1758.3	4.38073e-005	
1758.79	4.34489e-005	
1759.28	4.40957e-005	
1759.77	4.35324e-005	
1760.25	4.36767e-005	
1760.74	4.36352e-005	
1761.23	4.36443e-005	
1761.72	4.34992e-005	
1762.21	4.41399e-005	
1762.7	4.36358e-005	
1763.18	4.4049e-005	
1763.67	4.36523e-005	
1764.16	4.34482e-005	
1764.65	4.33818e-005	
1765.14	4.42058e-005	
1765.63	4.35672e-005	
1766.11	4.35113e-005	
1766.6	4.34984e-005	
1767.09	4.29114e-005	
1767.58	4.36037e-005	
1768.07	4.36221e-005	
1768.55	4.35053e-005	
1769.04	4.32185e-005	
1769.53	4.35088e-005	
1770.02	4.36787e-005	
1770.51	4.35862e-005	
1771	4.4124e-005	
1771.48	4.34858e-005	
1771.97	4.35998e-005	
1772.46	4.36128e-005	
1772.95	4.32533e-005	
1773.44	4.34663e-005	
1773.93	4.35691e-005	
1774.41	4.35128e-005	
1774.9	4.27316e-005	
1775.39	4.34444e-005	
1775.88	4.34619e-005	
1776.37	4.33609e-005	
1776.86	4.36757e-005	
1777.34	4.35381e-005	
1777.83	4.34611e-005	
1778.32	4.35824e-005	
1778.81	4.32234e-005	
1779.3	4.3514e-005	
1779.79	4.31813e-005	
1780.27	4.33929e-005	
1780.76	4.36882e-005	
1781.25	4.34917e-005	
1781.74	4.34028e-005	
1782.23	4.33134e-005	
1782.71	4.32629e-005	
1783.2	4.33514e-005	
1783.69	4.34415e-005	
1784.18	4.35167e-005	
1784.67	4.40387e-005	
1785.16	4.33518e-005	
1785.64	4.29206e-005	
1786.13	4.34529e-005	
1786.62	4.34169e-005	
1787.11	4.33523e-005	
1787.6	4.317e-005	
1788.09	4.34245e-005	
1788.57	4.3671e-005	
1789.06	4.32098e-005	
1789.55	4.34377e-005	
1790.04	4.35217e-005	
1790.53	4.33014e-005	
1791.02	4.34649e-005	
1791.5	4.32529e-005	
1791.99	4.32705e-005	
1792.48	4.32145e-005	
1792.97	4.32699e-005	
1793.46	4.31278e-005	
1793.95	4.34651e-005	
1794.43	4.34057e-005	
1794.92	4.34506e-005	
1795.41	4.36615e-005	
1795.9	4.34308e-005	
1796.39	4.32502e-005	
1796.88	4.33248e-005	
1797.36	4.2841e-005	
1797.85	4.34751e-005	
1798.34	4.36709e-005	
1798.83	4.3264e-005	
1799.32	4.30768e-005	
1799.8	4.34068e-005	
1800.29	4.32222e-005	
1800.78	4.34235e-005	
1801.27	4.39032e-005	
1801.76	4.32673e-005	
1802.25	4.35804e-005	
1802.73	4.32821e-005	
1803.22	4.38534e-005	
1803.71	4.33375e-005	
1804.2	4.34106e-005	
1804.69	4.34176e-005	
1805.18	4.35604e-005	
1805.66	4.32451e-005	
1806.15	4.29316e-005	
1806.64	4.35665e-005	
1807.13	4.35227e-005	
1807.62	4.32593e-005	
1808.11	4.35215e-005	
1808.59	4.314e-005	
1809.08	4.28264e-005	
1809.57	4.3406e-005	
1810.06	4.3042e-005	
1810.55	4.3197e-005	
1811.04	4.36898e-005	
1811.52	4.33061e-005	
1812.01	4.40686e-005	
1812.5	4.34495e-005	
1812.99	4.27707e-005	
1813.48	4.33875e-005	
1813.96	4.3378e-005	
1814.45	4.33145e-005	
1814.94	4.32255e-005	
1815.43	4.32325e-005	
1815.92	4.26294e-005	
1816.41	4.3238e-005	
1816.89	4.36867e-005	
1817.38	4.33159e-005	
1817.87	4.29951e-005	
1818.36	4.3232e-005	
1818.85	4.31753e-005	
1819.34	4.31689e-005	
1819.82	4.30215e-005	
1820.31	4.32609e-005	
1820.8	4.36015e-005	
1821.29	4.32553e-005	
1821.78	4.28421e-005	
1822.27	4.31895e-005	
1822.75	4.36758e-005	
1823.24	4.32218e-005	
1823.73	4.39192e-005	
1824.22	4.32008e-005	
1824.71	4.33193e-005	
1825.2	4.33592e-005	
1825.68	4.31294e-005	
1826.17	4.32102e-005	
1826.66	4.24163e-005	
1827.15	4.31446e-005	
1827.64	4.28477e-005	
1828.13	4.33141e-005	
1828.61	4.36145e-005	
1829.1	4.32206e-005	
1829.59	4.31205e-005	
1830.08	4.32512e-005	
1830.57	4.32377e-005	
1831.05	4.32291e-005	
1831.54	4.25479e-005	
1832.03	4.31687e-005	
1832.52	4.26307e-005	
1833.01	4.32774e-005	
1833.5	4.38003e-005	
1833.98	4.32214e-005	
1834.47	4.27557e-005	
1834.96	4.31631e-005	
1835.45	4.3204e-005	
1835.94	4.30854e-005	
1836.43	4.33651e-005	
1836.91	4.32199e-005	
1837.4	4.38075e-005	
1837.89	4.33107e-005	
1838.38	4.35612e-005	
1838.87	4.32388e-005	
1839.36	4.30973e-005	
1839.84	4.31603e-005	
1840.33	4.32377e-005	
1840.82	4.33067e-005	
1841.31	4.32896e-005	
1841.8	4.29814e-005	
1842.29	4.32183e-005	
1842.77	4.32114e-005	
1843.26	4.29595e-005	
1843.75	4.31717e-005	
1844.24	4.2549e-005	
1844.73	4.30268e-005	
1845.21	4.39622e-005	
1845.7	4.30681e-005	
1846.19	4.29172e-005	
1846.68	4.32089e-005	
1847.17	4.24805e-005	
1847.66	4.31305e-005	
1848.14	4.36806e-005	
1848.63	4.30357e-005	
1849.12	4.24919e-005	
1849.61	4.32962e-005	
1850.1	4.29815e-005	
1850.59	4.31022e-005	
1851.07	4.32181e-005	
1851.56	4.30303e-005	
1852.05	4.24557e-005	
1852.54	4.32154e-005	
1853.03	4.38013e-005	
1853.52	4.31529e-005	
1854	4.33407e-005	
1854.49	4.30197e-005	
1854.98	4.28905e-005	
1855.47	4.31148e-005	
1855.96	4.33221e-005	
1856.45	4.30392e-005	
1856.93	4.32676e-005	
1857.42	4.31535e-005	
1857.91	4.34944e-005	
1858.4	4.30902e-005	
1858.89	4.31401e-005	
1859.38	4.30835e-005	
1859.86	4.33302e-005	
1860.35	4.29706e-005	
1860.84	4.39492e-005	
1861.33	4.33882e-005	
1861.82	4.38567e-005	
1862.3	4.29954e-005	
1862.79	4.25811e-005	
1863.28	4.30698e-005	
1863.77	4.28301e-005	
1864.26	4.30386e-005	
1864.75	4.32433e-005	
1865.23	4.29014e-005	
1865.72	4.26272e-005	
1866.21	4.31119e-005	
1866.7	4.38994e-005	
1867.19	4.29832e-005	
1867.68	4.24367e-005	
1868.16	4.31198e-005	
1868.65	4.27865e-005	
1869.14	4.30521e-005	
1869.63	4.31718e-005	
1870.12	4.31127e-005	
1870.61	4.32179e-005	
1871.09	4.28804e-005	
1871.58	4.29835e-005	
1872.07	4.30658e-005	
1872.56	4.26124e-005	
1873.05	4.30636e-005	
1873.54	4.27501e-005	
1874.02	4.30999e-005	
1874.51	4.35323e-005	
1875	4.3011e-005	
1875.49	4.32137e-005	
1875.98	4.30395e-005	
1876.46	4.299e-005	
1876.95	4.31099e-005	
1877.44	4.29216e-005	
1877.93	4.29417e-005	
1878.42	4.31126e-005	
1878.91	4.3199e-005	
1879.39	4.30892e-005	
1879.88	4.29559e-005	
1880.37	4.30236e-005	
1880.86	4.29626e-005	
1881.35	4.34217e-005	
1881.84	4.30218e-005	
1882.32	4.28882e-005	
1882.81	4.29108e-005	
1883.3	4.32519e-005	
1883.79	4.28725e-005	
1884.28	4.34147e-005	
1884.77	4.3042e-005	
1885.25	4.3103e-005	
1885.74	4.30156e-005	
1886.23	4.35203e-005	
1886.72	4.30979e-005	
1887.21	4.31363e-005	
1887.7	4.29184e-005	
1888.18	4.27632e-005	
1888.67	4.30387e-005	
1889.16	4.20199e-005	
1889.65	4.31126e-005	
1890.14	4.34075e-005	
1890.63	4.3003e-005	
1891.11	4.26588e-005	
1891.6	4.27786e-005	
1892.09	4.31063e-005	
1892.58	4.32276e-005	
1893.07	4.2674e-005	
1893.55	4.30765e-005	
1894.04	4.28558e-005	
1894.53	4.2918e-005	
1895.02	4.28149e-005	
1895.51	4.3031e-005	
1896	4.26174e-005	
1896.48	4.29528e-005	
1896.97	4.28936e-005	
1897.46	4.29639e-005	
1897.95	4.32849e-005	
1898.44	4.29129e-005	
1898.93	4.3097e-005	
1899.41	4.30842e-005	
1899.9	4.31204e-005	
1900.39	4.29892e-005	
1900.88	4.33118e-005	
1901.37	4.28516e-005	
1901.86	4.18589e-005	
1902.34	4.30051e-005	
1902.83	4.25626e-005	
1903.32	4.31308e-005	
1903.81	4.23656e-005	
1904.3	4.27542e-005	
1904.79	4.28901e-005	
1905.27	4.30859e-005	
1905.76	4.27042e-005	
1906.25	4.31126e-005	
1906.74	4.32606e-005	
1907.23	4.28918e-005	
1907.71	4.25839e-005	
1908.2	4.29292e-005	
1908.69	4.31679e-005	
1909.18	4.27531e-005	
1909.67	4.31513e-005	
1910.16	4.3161e-005	
1910.64	4.3097e-005	
1911.13	4.28245e-005	
1911.62	4.28724e-005	
1912.11	4.29594e-005	
1912.6	4.27819e-005	
1913.09	4.2881e-005	
1913.57	4.28287e-005	
1914.06	4.28916e-005	
1914.55	4.27395e-005	
1915.04	4.29044e-005	
1915.53	4.26944e-005	
1916.02	4.2777e-005	
1916.5	4.30823e-005	
1916.99	4.29223e-005	
1917.48	4.2363e-005	
1917.97	4.28616e-005	
1918.46	4.26468e-005	
1918.95	4.27953e-005	
1919.43	4.37371e-005	
1919.92	4.29716e-005	
1920.41	4.35342e-005	
1920.9	4.29215e-005	
1921.39	4.23839e-005	
1921.88	4.29076e-005	
1922.36	4.29984e-005	
1922.85	4.30215e-005	
1923.34	4.20459e-005	
1923.83	4.3008e-005	
1924.32	4.34898e-005	
1924.8	4.28482e-005	
1925.29	4.26454e-005	
1925.78	4.27531e-005	
1926.27	4.27423e-005	
1926.76	4.29416e-005	
1927.25	4.21565e-005	
1927.73	4.27514e-005	
1928.22	4.26716e-005	
1928.71	4.2922e-005	
1929.2	4.29853e-005	
1929.69	4.28336e-005	
1930.18	4.30891e-005	
1930.66	4.29714e-005	
1931.15	4.30926e-005	
1931.64	4.29292e-005	
1932.13	4.31867e-005	
1932.62	4.28911e-005	
1933.11	4.2925e-005	
1933.59	4.29263e-005	
1934.08	4.29026e-005	
1934.57	4.27509e-005	
1935.06	4.27218e-005	
1935.55	4.29625e-005	
1936.04	4.29534e-005	
1936.52	4.28228e-005	
1937.01	4.26272e-005	
1937.5	4.28261e-005	
1937.99	4.28656e-005	
1938.48	4.28067e-005	
1938.96	4.31622e-005	
1939.45	4.29724e-005	
1939.94	4.26723e-005	
1940.43	4.29166e-005	
1940.92	4.30425e-005	
1941.41	4.28961e-005	
1941.89	4.22958e-005	
1942.38	4.29897e-005	
1942.87	4.2927e-005	
1943.36	4.28069e-005	
1943.85	4.31578e-005	
1944.34	4.28135e-005	
1944.82	4.27768e-005	
1945.31	4.29795e-005	
1945.8	4.26211e-005	
1946.29	4.28693e-005	
1946.78	4.31388e-005	
1947.27	4.27724e-005	
1947.75	4.31456e-005	
1948.24	4.28522e-005	
1948.73	4.22733e-005	
1949.22	4.28064e-005	
1949.71	4.28506e-005	
1950.2	4.27867e-005	
1950.68	4.29377e-005	
1951.17	4.27783e-005	
1951.66	4.29989e-005	
1952.15	4.28672e-005	
1952.64	4.31901e-005	
1953.13	4.29408e-005	
1953.61	4.33297e-005	
1954.1	4.29036e-005	
1954.59	4.28316e-005	
1955.08	4.2882e-005	
1955.57	4.26204e-005	
1956.05	4.2878e-005	
1956.54	4.27515e-005	
1957.03	4.26421e-005	
1957.52	4.29087e-005	
1958.01	4.27267e-005	
1958.5	4.28716e-005	
1958.98	4.27597e-005	
1959.47	4.26115e-005	
1959.96	4.28782e-005	
1960.45	4.2694e-005	
1960.94	4.29145e-005	
1961.43	4.29073e-005	
1961.91	4.25352e-005	
1962.4	4.26224e-005	
1962.89	4.2909e-005	
1963.38	4.2646e-005	
1963.87	4.28633e-005	
1964.36	4.21527e-005	
1964.84	4.29099e-005	
1965.33	4.23679e-005	
1965.82	4.27891e-005	
1966.31	4.31138e-005	
1966.8	4.26339e-005	
1967.29	4.25671e-005	
1967.77	4.28342e-005	
1968.26	4.32127e-005	
1968.75	4.2834e-005	
1969.24	4.25874e-005	
1969.73	4.29672e-005	
1970.21	4.28474e-005	
1970.7	4.27843e-005	
1971.19	4.20804e-005	
1971.68	4.28092e-005	
1972.17	4.19478e-005	
1972.66	4.27816e-005	
1973.14	4.241e-005	
1973.63	4.28445e-005	
1974.12	4.2775e-005	
1974.61	4.29801e-005	
1975.1	4.31601e-005	
1975.59	4.28137e-005	
1976.07	4.26646e-005	
1976.56	4.29403e-005	
1977.05	4.23163e-005	
1977.54	4.27482e-005	
1978.03	4.33139e-005	
1978.52	4.29158e-005	
1979	4.30227e-005	
1979.49	4.27716e-005	
1979.98	4.28153e-005	
1980.47	4.2824e-005	
1980.96	4.27961e-005	
1981.45	4.2856e-005	
1981.93	4.2527e-005	
1982.42	4.28693e-005	
1982.91	4.27763e-005	
1983.4	4.29041e-005	
1983.89	4.35431e-005	
1984.38	4.27552e-005	
1984.86	4.27537e-005	
1985.35	4.28631e-005	
1985.84	4.24849e-005	
1986.33	4.2742e-005	
1986.82	4.30622e-005	
1987.3	4.28222e-005	
1987.79	4.25744e-005	
1988.28	4.27699e-005	
1988.77	4.2728e-005	
1989.26	4.29629e-005	
1989.75	4.21571e-005	
1990.23	4.27677e-005	
1990.72	4.25255e-005	
1991.21	4.27469e-005	
1991.7	4.32121e-005	
1992.19	4.27205e-005	
1992.68	4.25601e-005	
1993.16	4.27788e-005	
1993.65	4.25523e-005	
1994.14	4.27123e-005	
1994.63	4.35965e-005	
1995.12	4.28889e-005	
1995.61	4.24368e-005	
1996.09	4.29098e-005	
1996.58	4.24386e-005	
1997.07	4.27244e-005	
1997.56	4.28964e-005	
1998.05	4.2856e-005	
1998.54	4.38188e-005	
1999.02	4.28616e-005	
1999.51	4.23464e-005	
2000	3.03811e-005	
